"","workerid","condition","points","totalpoints","trial_index","rt","age","race","gender","ethnicity","feedback","best_tree","confidence","ripe_proportion","regret","avg_regret","final_points","after_regret","choice","trial_type","last_choice","switch","avg_switch","lag_totalpoints","lag_regret","tree_1","tree_2","tree_3","tree_best","tree_medium","tree_worst","choice_goodbad","selected_best","guess_correctly","points_best","points_medium","points_worst","avg_rt","expected_value","total_expected_value","lag_expected_value","source"
"1",860,"regret_late",1,1,1,933,NA,NA,NA,NA,NA,NA,NA,NA,NA,49.7333333333333,31,0,2,"noregret",NA,0,20,NA,NA,0.5,0.7,0.2,2,1,3,"best",1,NA,0.615384615384615,0.461538461538462,0.125,852.05,0.7,35.4,NA,"data"
"2",860,"regret_late",1,2,2,1339,NA,NA,NA,NA,NA,NA,NA,NA,NA,49.7333333333333,31,0,2,"noregret",2,0,20,1,NA,0.5,0.7,0.2,2,1,3,"best",1,NA,0.615384615384615,0.461538461538462,0.125,852.05,0.7,35.4,0.7,"data"
"3",860,"regret_late",1,3,3,1156,NA,NA,NA,NA,NA,NA,NA,NA,NA,49.7333333333333,31,0,2,"noregret",2,0,20,2,NA,0.5,0.7,0.2,2,1,3,"best",1,NA,0.615384615384615,0.461538461538462,0.125,852.05,0.7,35.4,0.7,"data"
"4",860,"regret_late",1,4,4,896,NA,NA,NA,NA,NA,NA,NA,NA,NA,49.7333333333333,31,0,2,"noregret",2,0,20,3,NA,0.5,0.7,0.2,2,1,3,"best",1,NA,0.615384615384615,0.461538461538462,0.125,852.05,0.7,35.4,0.7,"data"
"5",860,"regret_late",1,5,5,993,NA,NA,NA,NA,NA,NA,NA,NA,NA,49.7333333333333,31,0,2,"noregret",2,0,20,4,NA,0.5,0.7,0.2,2,1,3,"best",1,NA,0.615384615384615,0.461538461538462,0.125,852.05,0.7,35.4,0.7,"data"
"6",860,"regret_late",0,5,6,1074,NA,NA,NA,NA,NA,NA,NA,NA,NA,49.7333333333333,31,0,2,"noregret",2,0,20,5,NA,0.5,0.7,0.2,2,1,3,"best",1,NA,0.615384615384615,0.461538461538462,0.125,852.05,0.7,35.4,0.7,"data"
"7",860,"regret_late",1,6,7,1293,NA,NA,NA,NA,NA,NA,NA,NA,NA,49.7333333333333,31,0,1,"noregret",2,1,20,5,NA,0.5,0.7,0.2,2,1,3,"medium",0,NA,0.615384615384615,0.461538461538462,0.125,852.05,0.5,35.4,0.7,"data"
"8",860,"regret_late",0,6,8,1162,NA,NA,NA,NA,NA,NA,NA,NA,NA,49.7333333333333,31,0,1,"noregret",1,0,20,6,NA,0.5,0.7,0.2,2,1,3,"medium",0,NA,0.615384615384615,0.461538461538462,0.125,852.05,0.5,35.4,0.5,"data"
"9",860,"regret_late",0,6,9,1343,NA,NA,NA,NA,NA,NA,NA,NA,NA,49.7333333333333,31,0,1,"noregret",1,0,20,6,NA,0.5,0.7,0.2,2,1,3,"medium",0,NA,0.615384615384615,0.461538461538462,0.125,852.05,0.5,35.4,0.5,"data"
"10",860,"regret_late",0,6,10,1415,NA,NA,NA,NA,NA,NA,NA,NA,NA,49.7333333333333,31,0,1,"noregret",1,0,20,6,NA,0.5,0.7,0.2,2,1,3,"medium",0,NA,0.615384615384615,0.461538461538462,0.125,852.05,0.5,35.4,0.5,"data"
"11",860,"regret_late",0,6,11,882,NA,NA,NA,NA,NA,NA,NA,NA,NA,49.7333333333333,31,0,3,"noregret",1,1,20,6,NA,0.5,0.7,0.2,2,1,3,"worst",0,NA,0.615384615384615,0.461538461538462,0.125,852.05,0.2,35.4,0.5,"data"
"12",860,"regret_late",0,6,12,839,NA,NA,NA,NA,NA,NA,NA,NA,NA,49.7333333333333,31,0,3,"noregret",3,0,20,6,NA,0.5,0.7,0.2,2,1,3,"worst",0,NA,0.615384615384615,0.461538461538462,0.125,852.05,0.2,35.4,0.2,"data"
"13",860,"regret_late",0,6,13,1075,NA,NA,NA,NA,NA,NA,NA,NA,NA,49.7333333333333,31,0,2,"noregret",3,1,20,6,NA,0.5,0.7,0.2,2,1,3,"best",1,NA,0.615384615384615,0.461538461538462,0.125,852.05,0.7,35.4,0.2,"data"
"14",860,"regret_late",1,7,14,834,NA,NA,NA,NA,NA,NA,NA,NA,NA,49.7333333333333,31,0,2,"noregret",2,0,20,6,NA,0.5,0.7,0.2,2,1,3,"best",1,NA,0.615384615384615,0.461538461538462,0.125,852.05,0.7,35.4,0.7,"data"
"15",860,"regret_late",1,8,15,1040,NA,NA,NA,NA,NA,NA,NA,NA,NA,49.7333333333333,31,0,2,"noregret",2,0,20,7,NA,0.5,0.7,0.2,2,1,3,"best",1,NA,0.615384615384615,0.461538461538462,0.125,852.05,0.7,35.4,0.7,"data"
"16",860,"regret_late",1,9,16,875,NA,NA,NA,NA,NA,NA,NA,NA,NA,49.7333333333333,31,0,2,"noregret",2,0,20,8,NA,0.5,0.7,0.2,2,1,3,"best",1,NA,0.615384615384615,0.461538461538462,0.125,852.05,0.7,35.4,0.7,"data"
"17",860,"regret_late",1,10,17,813,NA,NA,NA,NA,NA,NA,NA,NA,NA,49.7333333333333,31,0,2,"noregret",2,0,20,9,NA,0.5,0.7,0.2,2,1,3,"best",1,NA,0.615384615384615,0.461538461538462,0.125,852.05,0.7,35.4,0.7,"data"
"18",860,"regret_late",0,10,18,855,NA,NA,NA,NA,NA,NA,NA,NA,NA,49.7333333333333,31,0,2,"noregret",2,0,20,10,NA,0.5,0.7,0.2,2,1,3,"best",1,NA,0.615384615384615,0.461538461538462,0.125,852.05,0.7,35.4,0.7,"data"
"19",860,"regret_late",0,10,19,801,NA,NA,NA,NA,NA,NA,NA,NA,NA,49.7333333333333,31,0,2,"noregret",2,0,20,10,NA,0.5,0.7,0.2,2,1,3,"best",1,NA,0.615384615384615,0.461538461538462,0.125,852.05,0.7,35.4,0.7,"data"
"20",860,"regret_late",1,11,20,872,NA,NA,NA,NA,NA,NA,NA,NA,NA,49.7333333333333,31,0,1,"noregret",2,1,20,10,NA,0.5,0.7,0.2,2,1,3,"medium",0,NA,0.615384615384615,0.461538461538462,0.125,852.05,0.5,35.4,0.7,"data"
"21",860,"regret_late",0,11,21,887,NA,NA,NA,NA,NA,NA,NA,NA,NA,49.7333333333333,31,0,3,"noregret",1,1,20,11,NA,0.5,0.7,0.2,2,1,3,"worst",0,NA,0.615384615384615,0.461538461538462,0.125,852.05,0.2,35.4,0.5,"data"
"22",860,"regret_late",1,12,22,748,NA,NA,NA,NA,NA,NA,NA,NA,NA,49.7333333333333,31,0,2,"noregret",3,1,20,11,NA,0.5,0.7,0.2,2,1,3,"best",1,NA,0.615384615384615,0.461538461538462,0.125,852.05,0.7,35.4,0.2,"data"
"23",860,"regret_late",0,12,23,1011,NA,NA,NA,NA,NA,NA,NA,NA,NA,49.7333333333333,31,0,2,"noregret",2,0,20,12,NA,0.5,0.7,0.2,2,1,3,"best",1,NA,0.615384615384615,0.461538461538462,0.125,852.05,0.7,35.4,0.7,"data"
"24",860,"regret_late",0,12,24,1506,NA,NA,NA,NA,NA,NA,NA,NA,NA,49.7333333333333,31,0,2,"noregret",2,0,20,12,NA,0.5,0.7,0.2,2,1,3,"best",1,NA,0.615384615384615,0.461538461538462,0.125,852.05,0.7,35.4,0.7,"data"
"25",860,"regret_late",1,13,25,1418,NA,NA,NA,NA,NA,NA,NA,NA,NA,49.7333333333333,31,0,2,"noregret",2,0,20,12,NA,0.5,0.7,0.2,2,1,3,"best",1,NA,0.615384615384615,0.461538461538462,0.125,852.05,0.7,35.4,0.7,"data"
"26",860,"regret_late",1,14,26,1040,NA,NA,NA,NA,NA,NA,NA,NA,NA,49.7333333333333,31,0,2,"noregret",2,0,20,13,NA,0.5,0.7,0.2,2,1,3,"best",1,NA,0.615384615384615,0.461538461538462,0.125,852.05,0.7,35.4,0.7,"data"
"27",860,"regret_late",1,15,27,733,NA,NA,NA,NA,NA,NA,NA,NA,NA,49.7333333333333,31,0,1,"noregret",2,1,20,14,NA,0.5,0.7,0.2,2,1,3,"medium",0,NA,0.615384615384615,0.461538461538462,0.125,852.05,0.5,35.4,0.7,"data"
"28",860,"regret_late",1,16,28,985,NA,NA,NA,NA,NA,NA,NA,NA,NA,49.7333333333333,31,0,3,"noregret",1,1,20,15,NA,0.5,0.7,0.2,2,1,3,"worst",0,NA,0.615384615384615,0.461538461538462,0.125,852.05,0.2,35.4,0.5,"data"
"29",860,"regret_late",0,16,29,799,NA,NA,NA,NA,NA,NA,NA,NA,NA,49.7333333333333,31,0,2,"noregret",3,1,20,16,NA,0.5,0.7,0.2,2,1,3,"best",1,NA,0.615384615384615,0.461538461538462,0.125,852.05,0.7,35.4,0.2,"data"
"30",860,"regret_late",0,16,30,961,NA,NA,NA,NA,NA,NA,NA,NA,NA,49.7333333333333,31,0,2,"noregret",2,0,20,16,NA,0.5,0.7,0.2,2,1,3,"best",1,NA,0.615384615384615,0.461538461538462,0.125,852.05,0.7,35.4,0.7,"data"
"31",860,"regret_late",1,17,31,841,NA,NA,NA,NA,NA,NA,NA,NA,NA,49.7333333333333,31,0,2,"noregret",2,0,20,16,NA,0.5,0.7,0.2,2,1,3,"best",1,NA,0.615384615384615,0.461538461538462,0.125,852.05,0.7,35.4,0.7,"data"
"32",860,"regret_late",1,18,32,802,NA,NA,NA,NA,NA,NA,NA,NA,NA,49.7333333333333,31,0,2,"noregret",2,0,20,17,NA,0.5,0.7,0.2,2,1,3,"best",1,NA,0.615384615384615,0.461538461538462,0.125,852.05,0.7,35.4,0.7,"data"
"33",860,"regret_late",0,18,33,1090,NA,NA,NA,NA,NA,NA,NA,NA,NA,49.7333333333333,31,0,2,"noregret",2,0,20,18,NA,0.5,0.7,0.2,2,1,3,"best",1,NA,0.615384615384615,0.461538461538462,0.125,852.05,0.7,35.4,0.7,"data"
"34",860,"regret_late",0,18,NA,5886,NA,NA,NA,NA,NA,NA,NA,NA,"28",49.7333333333333,31,0,NA,"regret",2,0,20,18,NA,NA,NA,NA,2,NA,NA,NA,NA,NA,0.615384615384615,0.461538461538462,0.125,852.05,NA,35.4,0.7,"data"
"35",860,"regret_late",1,19,34,364,NA,NA,NA,NA,NA,NA,NA,NA,NA,49.7333333333333,31,1,2,"noregret",2,0,20,18,"28",0.5,0.7,0.2,2,1,3,"best",1,NA,0.615384615384615,0.461538461538462,0.125,852.05,0.7,35.4,NA,"data"
"36",860,"regret_late",1,20,35,866,NA,NA,NA,NA,NA,NA,NA,NA,NA,49.7333333333333,31,0,1,"noregret",2,1,20,19,NA,0.5,0.7,0.2,2,1,3,"medium",0,NA,0.615384615384615,0.461538461538462,0.125,852.05,0.5,35.4,0.7,"data"
"37",860,"regret_late",1,21,36,1039,NA,NA,NA,NA,NA,NA,NA,NA,NA,49.7333333333333,31,0,1,"noregret",1,0,20,20,NA,0.5,0.7,0.2,2,1,3,"medium",0,NA,0.615384615384615,0.461538461538462,0.125,852.05,0.5,35.4,0.5,"data"
"38",860,"regret_late",0,21,37,810,NA,NA,NA,NA,NA,NA,NA,NA,NA,49.7333333333333,31,0,3,"noregret",1,1,20,21,NA,0.5,0.7,0.2,2,1,3,"worst",0,NA,0.615384615384615,0.461538461538462,0.125,852.05,0.2,35.4,0.5,"data"
"39",860,"regret_late",0,21,NA,5393,NA,NA,NA,NA,NA,NA,NA,NA,"68",49.7333333333333,31,0,NA,"regret",3,0,20,21,NA,NA,NA,NA,2,NA,NA,NA,NA,NA,0.615384615384615,0.461538461538462,0.125,852.05,NA,35.4,0.2,"data"
"40",860,"regret_late",1,22,38,515,NA,NA,NA,NA,NA,NA,NA,NA,NA,49.7333333333333,31,1,2,"noregret",3,1,20,21,"68",0.5,0.7,0.2,2,1,3,"best",1,NA,0.615384615384615,0.461538461538462,0.125,852.05,0.7,35.4,NA,"data"
"41",860,"regret_late",1,23,39,673,NA,NA,NA,NA,NA,NA,NA,NA,NA,49.7333333333333,31,0,2,"noregret",2,0,20,22,NA,0.5,0.7,0.2,2,1,3,"best",1,NA,0.615384615384615,0.461538461538462,0.125,852.05,0.7,35.4,0.7,"data"
"42",860,"regret_late",1,24,40,868,NA,NA,NA,NA,NA,NA,NA,NA,NA,49.7333333333333,31,0,2,"noregret",2,0,20,23,NA,0.5,0.7,0.2,2,1,3,"best",1,NA,0.615384615384615,0.461538461538462,0.125,852.05,0.7,35.4,0.7,"data"
"43",860,"regret_late",0,24,41,957,NA,NA,NA,NA,NA,NA,NA,NA,NA,49.7333333333333,31,0,1,"noregret",2,1,20,24,NA,0.5,0.7,0.2,2,1,3,"medium",0,NA,0.615384615384615,0.461538461538462,0.125,852.05,0.5,35.4,0.7,"data"
"44",860,"regret_late",0,24,NA,4671,NA,NA,NA,NA,NA,NA,NA,NA,"56",49.7333333333333,31,0,NA,"regret",1,0,20,24,NA,NA,NA,NA,2,NA,NA,NA,NA,NA,0.615384615384615,0.461538461538462,0.125,852.05,NA,35.4,0.5,"data"
"45",860,"regret_late",0,24,42,507,NA,NA,NA,NA,NA,NA,NA,NA,NA,49.7333333333333,31,1,1,"noregret",1,0,20,24,"56",0.5,0.7,0.2,2,1,3,"medium",0,NA,0.615384615384615,0.461538461538462,0.125,852.05,0.5,35.4,NA,"data"
"46",860,"regret_late",0,24,NA,2266,NA,NA,NA,NA,NA,NA,NA,NA,"66",49.7333333333333,31,0,NA,"regret",1,0,20,24,NA,NA,NA,NA,2,NA,NA,NA,NA,NA,0.615384615384615,0.461538461538462,0.125,852.05,NA,35.4,0.5,"data"
"47",860,"regret_late",0,24,43,401,NA,NA,NA,NA,NA,NA,NA,NA,NA,49.7333333333333,31,1,3,"noregret",1,1,20,24,"66",0.5,0.7,0.2,2,1,3,"worst",0,NA,0.615384615384615,0.461538461538462,0.125,852.05,0.2,35.4,NA,"data"
"48",860,"regret_late",0,24,NA,3384,NA,NA,NA,NA,NA,NA,NA,NA,"61",49.7333333333333,31,0,NA,"regret",3,0,20,24,NA,NA,NA,NA,2,NA,NA,NA,NA,NA,0.615384615384615,0.461538461538462,0.125,852.05,NA,35.4,0.2,"data"
"49",860,"regret_late",0,24,44,566,NA,NA,NA,NA,NA,NA,NA,NA,NA,49.7333333333333,31,1,3,"noregret",3,0,20,24,"61",0.5,0.7,0.2,2,1,3,"worst",0,NA,0.615384615384615,0.461538461538462,0.125,852.05,0.2,35.4,NA,"data"
"50",860,"regret_late",0,24,NA,2691,NA,NA,NA,NA,NA,NA,NA,NA,"62",49.7333333333333,31,0,NA,"regret",3,0,20,24,NA,NA,NA,NA,2,NA,NA,NA,NA,NA,0.615384615384615,0.461538461538462,0.125,852.05,NA,35.4,0.2,"data"
"51",860,"regret_late",0,24,45,403,NA,NA,NA,NA,NA,NA,NA,NA,NA,49.7333333333333,31,1,2,"noregret",3,1,20,24,"62",0.5,0.7,0.2,2,1,3,"best",1,NA,0.615384615384615,0.461538461538462,0.125,852.05,0.7,35.4,NA,"data"
"52",860,"regret_late",0,24,NA,3655,NA,NA,NA,NA,NA,NA,NA,NA,"40",49.7333333333333,31,0,NA,"regret",2,0,20,24,NA,NA,NA,NA,2,NA,NA,NA,NA,NA,0.615384615384615,0.461538461538462,0.125,852.05,NA,35.4,0.7,"data"
"53",860,"regret_late",1,25,46,166,NA,NA,NA,NA,NA,NA,NA,NA,NA,49.7333333333333,31,1,2,"noregret",2,0,20,24,"40",0.5,0.7,0.2,2,1,3,"best",1,NA,0.615384615384615,0.461538461538462,0.125,852.05,0.7,35.4,NA,"data"
"54",860,"regret_late",1,26,47,695,NA,NA,NA,NA,NA,NA,NA,NA,NA,49.7333333333333,31,0,2,"noregret",2,0,20,25,NA,0.5,0.7,0.2,2,1,3,"best",1,NA,0.615384615384615,0.461538461538462,0.125,852.05,0.7,35.4,0.7,"data"
"55",860,"regret_late",0,26,48,1041,NA,NA,NA,NA,NA,NA,NA,NA,NA,49.7333333333333,31,0,2,"noregret",2,0,20,26,NA,0.5,0.7,0.2,2,1,3,"best",1,NA,0.615384615384615,0.461538461538462,0.125,852.05,0.7,35.4,0.7,"data"
"56",860,"regret_late",0,26,NA,3433,NA,NA,NA,NA,NA,NA,NA,NA,"41",49.7333333333333,31,0,NA,"regret",2,0,20,26,NA,NA,NA,NA,2,NA,NA,NA,NA,NA,0.615384615384615,0.461538461538462,0.125,852.05,NA,35.4,0.7,"data"
"57",860,"regret_late",0,26,49,507,NA,NA,NA,NA,NA,NA,NA,NA,NA,49.7333333333333,31,1,1,"noregret",2,1,20,26,"41",0.5,0.7,0.2,2,1,3,"medium",0,NA,0.615384615384615,0.461538461538462,0.125,852.05,0.5,35.4,NA,"data"
"58",860,"regret_late",0,26,NA,2152,NA,NA,NA,NA,NA,NA,NA,NA,"56",49.7333333333333,31,0,NA,"regret",1,0,20,26,NA,NA,NA,NA,2,NA,NA,NA,NA,NA,0.615384615384615,0.461538461538462,0.125,852.05,NA,35.4,0.5,"data"
"59",860,"regret_late",0,26,50,342,NA,NA,NA,NA,NA,NA,NA,NA,NA,49.7333333333333,31,1,3,"noregret",1,1,20,26,"56",0.5,0.7,0.2,2,1,3,"worst",0,NA,0.615384615384615,0.461538461538462,0.125,852.05,0.2,35.4,NA,"data"
"60",860,"regret_late",0,26,NA,11376,NA,NA,NA,NA,NA,NA,NA,NA,"58",49.7333333333333,31,0,NA,"regret",3,0,20,26,NA,NA,NA,NA,2,NA,NA,NA,NA,NA,0.615384615384615,0.461538461538462,0.125,852.05,NA,35.4,0.2,"data"
"61",860,"regret_late",1,27,51,402,NA,NA,NA,NA,NA,NA,NA,NA,NA,49.7333333333333,31,1,2,"noregret",3,1,20,26,"58",0.5,0.7,0.2,2,1,3,"best",1,NA,0.615384615384615,0.461538461538462,0.125,852.05,0.7,35.4,NA,"data"
"62",860,"regret_late",0,27,52,2159,NA,NA,NA,NA,NA,NA,NA,NA,NA,49.7333333333333,31,0,2,"noregret",2,0,20,27,NA,0.5,0.7,0.2,2,1,3,"best",1,NA,0.615384615384615,0.461538461538462,0.125,852.05,0.7,35.4,0.7,"data"
"63",860,"regret_late",0,27,NA,2323,NA,NA,NA,NA,NA,NA,NA,NA,"38",49.7333333333333,31,0,NA,"regret",2,0,20,27,NA,NA,NA,NA,2,NA,NA,NA,NA,NA,0.615384615384615,0.461538461538462,0.125,852.05,NA,35.4,0.7,"data"
"64",860,"regret_late",1,28,53,289,NA,NA,NA,NA,NA,NA,NA,NA,NA,49.7333333333333,31,1,1,"noregret",2,1,20,27,"38",0.5,0.7,0.2,2,1,3,"medium",0,NA,0.615384615384615,0.461538461538462,0.125,852.05,0.5,35.4,NA,"data"
"65",860,"regret_late",0,28,54,742,NA,NA,NA,NA,NA,NA,NA,NA,NA,49.7333333333333,31,0,1,"noregret",1,0,20,28,NA,0.5,0.7,0.2,2,1,3,"medium",0,NA,0.615384615384615,0.461538461538462,0.125,852.05,0.5,35.4,0.5,"data"
"66",860,"regret_late",0,28,NA,3170,NA,NA,NA,NA,NA,NA,NA,NA,"52",49.7333333333333,31,0,NA,"regret",1,0,20,28,NA,NA,NA,NA,2,NA,NA,NA,NA,NA,0.615384615384615,0.461538461538462,0.125,852.05,NA,35.4,0.5,"data"
"67",860,"regret_late",1,29,55,465,NA,NA,NA,NA,NA,NA,NA,NA,NA,49.7333333333333,31,1,2,"noregret",1,1,20,28,"52",0.5,0.7,0.2,2,1,3,"best",1,NA,0.615384615384615,0.461538461538462,0.125,852.05,0.7,35.4,NA,"data"
"68",860,"regret_late",1,30,56,734,NA,NA,NA,NA,NA,NA,NA,NA,NA,49.7333333333333,31,0,2,"noregret",2,0,20,29,NA,0.5,0.7,0.2,2,1,3,"best",1,NA,0.615384615384615,0.461538461538462,0.125,852.05,0.7,35.4,0.7,"data"
"69",860,"regret_late",0,30,57,757,NA,NA,NA,NA,NA,NA,NA,NA,NA,49.7333333333333,31,0,2,"noregret",2,0,20,30,NA,0.5,0.7,0.2,2,1,3,"best",1,NA,0.615384615384615,0.461538461538462,0.125,852.05,0.7,35.4,0.7,"data"
"70",860,"regret_late",0,30,NA,8500,NA,NA,NA,NA,NA,NA,NA,NA,"40",49.7333333333333,31,0,NA,"regret",2,0,20,30,NA,NA,NA,NA,2,NA,NA,NA,NA,NA,0.615384615384615,0.461538461538462,0.125,852.05,NA,35.4,0.7,"data"
"71",860,"regret_late",0,30,58,593,NA,NA,NA,NA,NA,NA,NA,NA,NA,49.7333333333333,31,1,2,"noregret",2,0,20,30,"40",0.5,0.7,0.2,2,1,3,"best",1,NA,0.615384615384615,0.461538461538462,0.125,852.05,0.7,35.4,NA,"data"
"72",860,"regret_late",0,30,NA,1835,NA,NA,NA,NA,NA,NA,NA,NA,"42",49.7333333333333,31,0,NA,"regret",2,0,20,30,NA,NA,NA,NA,2,NA,NA,NA,NA,NA,0.615384615384615,0.461538461538462,0.125,852.05,NA,35.4,0.7,"data"
"73",860,"regret_late",1,31,59,318,NA,NA,NA,NA,NA,NA,NA,NA,NA,49.7333333333333,31,1,2,"noregret",2,0,20,30,"42",0.5,0.7,0.2,2,1,3,"best",1,NA,0.615384615384615,0.461538461538462,0.125,852.05,0.7,35.4,NA,"data"
"74",860,"regret_late",0,31,60,633,NA,NA,NA,NA,NA,NA,NA,NA,NA,49.7333333333333,31,0,2,"noregret",2,0,20,31,NA,0.5,0.7,0.2,2,1,3,"best",1,NA,0.615384615384615,0.461538461538462,0.125,852.05,0.7,35.4,0.7,"data"
"75",860,"regret_late",0,31,NA,4203,NA,NA,NA,NA,NA,NA,NA,NA,"38",49.7333333333333,31,0,NA,"regret",2,0,20,31,NA,NA,NA,NA,2,NA,NA,NA,NA,NA,0.615384615384615,0.461538461538462,0.125,852.05,NA,35.4,0.7,"data"
"76",860,"regret_late",0,31,61,210413,"21","White","Male","Non-Hispanic","I mostly went with the center tree, but tried to change it up after getting multiple ripe fruit in a row.",2,3,75,NA,49.7333333333333,31,1,NA,"noregret",2,0,20,31,"38",NA,NA,NA,2,NA,NA,NA,NA,1,0.615384615384615,0.461538461538462,0.125,852.05,NA,35.4,NA,"data"
"77",835,"regret_late",1,1,1,1496,NA,NA,NA,NA,NA,NA,NA,NA,NA,9.2,45,0,3,"noregret",NA,0,4,NA,NA,0.2,0.5,0.7,3,2,1,"best",1,NA,0.785714285714286,0.333333333333333,0,775.683333333333,0.7,40.9,NA,"data"
"78",835,"regret_late",1,2,2,1322,NA,NA,NA,NA,NA,NA,NA,NA,NA,9.2,45,0,3,"noregret",3,0,4,1,NA,0.2,0.5,0.7,3,2,1,"best",1,NA,0.785714285714286,0.333333333333333,0,775.683333333333,0.7,40.9,0.7,"data"
"79",835,"regret_late",1,3,3,1050,NA,NA,NA,NA,NA,NA,NA,NA,NA,9.2,45,0,3,"noregret",3,0,4,2,NA,0.2,0.5,0.7,3,2,1,"best",1,NA,0.785714285714286,0.333333333333333,0,775.683333333333,0.7,40.9,0.7,"data"
"80",835,"regret_late",0,3,4,829,NA,NA,NA,NA,NA,NA,NA,NA,NA,9.2,45,0,3,"noregret",3,0,4,3,NA,0.2,0.5,0.7,3,2,1,"best",1,NA,0.785714285714286,0.333333333333333,0,775.683333333333,0.7,40.9,0.7,"data"
"81",835,"regret_late",1,4,5,1221,NA,NA,NA,NA,NA,NA,NA,NA,NA,9.2,45,0,3,"noregret",3,0,4,3,NA,0.2,0.5,0.7,3,2,1,"best",1,NA,0.785714285714286,0.333333333333333,0,775.683333333333,0.7,40.9,0.7,"data"
"82",835,"regret_late",1,5,6,814,NA,NA,NA,NA,NA,NA,NA,NA,NA,9.2,45,0,3,"noregret",3,0,4,4,NA,0.2,0.5,0.7,3,2,1,"best",1,NA,0.785714285714286,0.333333333333333,0,775.683333333333,0.7,40.9,0.7,"data"
"83",835,"regret_late",1,6,7,859,NA,NA,NA,NA,NA,NA,NA,NA,NA,9.2,45,0,3,"noregret",3,0,4,5,NA,0.2,0.5,0.7,3,2,1,"best",1,NA,0.785714285714286,0.333333333333333,0,775.683333333333,0.7,40.9,0.7,"data"
"84",835,"regret_late",1,7,8,1029,NA,NA,NA,NA,NA,NA,NA,NA,NA,9.2,45,0,3,"noregret",3,0,4,6,NA,0.2,0.5,0.7,3,2,1,"best",1,NA,0.785714285714286,0.333333333333333,0,775.683333333333,0.7,40.9,0.7,"data"
"85",835,"regret_late",0,7,9,785,NA,NA,NA,NA,NA,NA,NA,NA,NA,9.2,45,0,3,"noregret",3,0,4,7,NA,0.2,0.5,0.7,3,2,1,"best",1,NA,0.785714285714286,0.333333333333333,0,775.683333333333,0.7,40.9,0.7,"data"
"86",835,"regret_late",1,8,10,872,NA,NA,NA,NA,NA,NA,NA,NA,NA,9.2,45,0,3,"noregret",3,0,4,7,NA,0.2,0.5,0.7,3,2,1,"best",1,NA,0.785714285714286,0.333333333333333,0,775.683333333333,0.7,40.9,0.7,"data"
"87",835,"regret_late",1,9,11,1048,NA,NA,NA,NA,NA,NA,NA,NA,NA,9.2,45,0,3,"noregret",3,0,4,8,NA,0.2,0.5,0.7,3,2,1,"best",1,NA,0.785714285714286,0.333333333333333,0,775.683333333333,0.7,40.9,0.7,"data"
"88",835,"regret_late",1,10,12,835,NA,NA,NA,NA,NA,NA,NA,NA,NA,9.2,45,0,3,"noregret",3,0,4,9,NA,0.2,0.5,0.7,3,2,1,"best",1,NA,0.785714285714286,0.333333333333333,0,775.683333333333,0.7,40.9,0.7,"data"
"89",835,"regret_late",0,10,13,861,NA,NA,NA,NA,NA,NA,NA,NA,NA,9.2,45,0,3,"noregret",3,0,4,10,NA,0.2,0.5,0.7,3,2,1,"best",1,NA,0.785714285714286,0.333333333333333,0,775.683333333333,0.7,40.9,0.7,"data"
"90",835,"regret_late",1,11,14,845,NA,NA,NA,NA,NA,NA,NA,NA,NA,9.2,45,0,3,"noregret",3,0,4,10,NA,0.2,0.5,0.7,3,2,1,"best",1,NA,0.785714285714286,0.333333333333333,0,775.683333333333,0.7,40.9,0.7,"data"
"91",835,"regret_late",1,12,15,763,NA,NA,NA,NA,NA,NA,NA,NA,NA,9.2,45,0,3,"noregret",3,0,4,11,NA,0.2,0.5,0.7,3,2,1,"best",1,NA,0.785714285714286,0.333333333333333,0,775.683333333333,0.7,40.9,0.7,"data"
"92",835,"regret_late",1,13,16,722,NA,NA,NA,NA,NA,NA,NA,NA,NA,9.2,45,0,3,"noregret",3,0,4,12,NA,0.2,0.5,0.7,3,2,1,"best",1,NA,0.785714285714286,0.333333333333333,0,775.683333333333,0.7,40.9,0.7,"data"
"93",835,"regret_late",1,14,17,693,NA,NA,NA,NA,NA,NA,NA,NA,NA,9.2,45,0,2,"noregret",3,1,4,13,NA,0.2,0.5,0.7,3,2,1,"medium",0,NA,0.785714285714286,0.333333333333333,0,775.683333333333,0.5,40.9,0.7,"data"
"94",835,"regret_late",0,14,18,699,NA,NA,NA,NA,NA,NA,NA,NA,NA,9.2,45,0,2,"noregret",2,0,4,14,NA,0.2,0.5,0.7,3,2,1,"medium",0,NA,0.785714285714286,0.333333333333333,0,775.683333333333,0.5,40.9,0.5,"data"
"95",835,"regret_late",0,14,19,736,NA,NA,NA,NA,NA,NA,NA,NA,NA,9.2,45,0,2,"noregret",2,0,4,14,NA,0.2,0.5,0.7,3,2,1,"medium",0,NA,0.785714285714286,0.333333333333333,0,775.683333333333,0.5,40.9,0.5,"data"
"96",835,"regret_late",0,14,20,839,NA,NA,NA,NA,NA,NA,NA,NA,NA,9.2,45,0,3,"noregret",2,1,4,14,NA,0.2,0.5,0.7,3,2,1,"best",1,NA,0.785714285714286,0.333333333333333,0,775.683333333333,0.7,40.9,0.5,"data"
"97",835,"regret_late",1,15,21,791,NA,NA,NA,NA,NA,NA,NA,NA,NA,9.2,45,0,3,"noregret",3,0,4,14,NA,0.2,0.5,0.7,3,2,1,"best",1,NA,0.785714285714286,0.333333333333333,0,775.683333333333,0.7,40.9,0.7,"data"
"98",835,"regret_late",1,16,22,711,NA,NA,NA,NA,NA,NA,NA,NA,NA,9.2,45,0,3,"noregret",3,0,4,15,NA,0.2,0.5,0.7,3,2,1,"best",1,NA,0.785714285714286,0.333333333333333,0,775.683333333333,0.7,40.9,0.7,"data"
"99",835,"regret_late",1,17,23,711,NA,NA,NA,NA,NA,NA,NA,NA,NA,9.2,45,0,3,"noregret",3,0,4,16,NA,0.2,0.5,0.7,3,2,1,"best",1,NA,0.785714285714286,0.333333333333333,0,775.683333333333,0.7,40.9,0.7,"data"
"100",835,"regret_late",0,17,24,1090,NA,NA,NA,NA,NA,NA,NA,NA,NA,9.2,45,0,1,"noregret",3,1,4,17,NA,0.2,0.5,0.7,3,2,1,"worst",0,NA,0.785714285714286,0.333333333333333,0,775.683333333333,0.2,40.9,0.7,"data"
"101",835,"regret_late",1,18,25,640,NA,NA,NA,NA,NA,NA,NA,NA,NA,9.2,45,0,3,"noregret",1,1,4,17,NA,0.2,0.5,0.7,3,2,1,"best",1,NA,0.785714285714286,0.333333333333333,0,775.683333333333,0.7,40.9,0.2,"data"
"102",835,"regret_late",0,18,26,719,NA,NA,NA,NA,NA,NA,NA,NA,NA,9.2,45,0,3,"noregret",3,0,4,18,NA,0.2,0.5,0.7,3,2,1,"best",1,NA,0.785714285714286,0.333333333333333,0,775.683333333333,0.7,40.9,0.7,"data"
"103",835,"regret_late",1,19,27,653,NA,NA,NA,NA,NA,NA,NA,NA,NA,9.2,45,0,3,"noregret",3,0,4,18,NA,0.2,0.5,0.7,3,2,1,"best",1,NA,0.785714285714286,0.333333333333333,0,775.683333333333,0.7,40.9,0.7,"data"
"104",835,"regret_late",0,19,28,665,NA,NA,NA,NA,NA,NA,NA,NA,NA,9.2,45,0,3,"noregret",3,0,4,19,NA,0.2,0.5,0.7,3,2,1,"best",1,NA,0.785714285714286,0.333333333333333,0,775.683333333333,0.7,40.9,0.7,"data"
"105",835,"regret_late",0,19,29,728,NA,NA,NA,NA,NA,NA,NA,NA,NA,9.2,45,0,3,"noregret",3,0,4,19,NA,0.2,0.5,0.7,3,2,1,"best",1,NA,0.785714285714286,0.333333333333333,0,775.683333333333,0.7,40.9,0.7,"data"
"106",835,"regret_late",1,20,30,827,NA,NA,NA,NA,NA,NA,NA,NA,NA,9.2,45,0,3,"noregret",3,0,4,19,NA,0.2,0.5,0.7,3,2,1,"best",1,NA,0.785714285714286,0.333333333333333,0,775.683333333333,0.7,40.9,0.7,"data"
"107",835,"regret_late",1,21,31,688,NA,NA,NA,NA,NA,NA,NA,NA,NA,9.2,45,0,3,"noregret",3,0,4,20,NA,0.2,0.5,0.7,3,2,1,"best",1,NA,0.785714285714286,0.333333333333333,0,775.683333333333,0.7,40.9,0.7,"data"
"108",835,"regret_late",0,21,32,699,NA,NA,NA,NA,NA,NA,NA,NA,NA,9.2,45,0,3,"noregret",3,0,4,21,NA,0.2,0.5,0.7,3,2,1,"best",1,NA,0.785714285714286,0.333333333333333,0,775.683333333333,0.7,40.9,0.7,"data"
"109",835,"regret_late",0,21,NA,3587,NA,NA,NA,NA,NA,NA,NA,NA,"3",9.2,45,0,NA,"regret",3,0,4,21,NA,NA,NA,NA,3,NA,NA,NA,NA,NA,0.785714285714286,0.333333333333333,0,775.683333333333,NA,40.9,0.7,"data"
"110",835,"regret_late",1,22,33,583,NA,NA,NA,NA,NA,NA,NA,NA,NA,9.2,45,1,3,"noregret",3,0,4,21,"3",0.2,0.5,0.7,3,2,1,"best",1,NA,0.785714285714286,0.333333333333333,0,775.683333333333,0.7,40.9,NA,"data"
"111",835,"regret_late",1,23,34,706,NA,NA,NA,NA,NA,NA,NA,NA,NA,9.2,45,0,3,"noregret",3,0,4,22,NA,0.2,0.5,0.7,3,2,1,"best",1,NA,0.785714285714286,0.333333333333333,0,775.683333333333,0.7,40.9,0.7,"data"
"112",835,"regret_late",1,24,35,660,NA,NA,NA,NA,NA,NA,NA,NA,NA,9.2,45,0,3,"noregret",3,0,4,23,NA,0.2,0.5,0.7,3,2,1,"best",1,NA,0.785714285714286,0.333333333333333,0,775.683333333333,0.7,40.9,0.7,"data"
"113",835,"regret_late",1,25,36,677,NA,NA,NA,NA,NA,NA,NA,NA,NA,9.2,45,0,3,"noregret",3,0,4,24,NA,0.2,0.5,0.7,3,2,1,"best",1,NA,0.785714285714286,0.333333333333333,0,775.683333333333,0.7,40.9,0.7,"data"
"114",835,"regret_late",1,26,37,710,NA,NA,NA,NA,NA,NA,NA,NA,NA,9.2,45,0,3,"noregret",3,0,4,25,NA,0.2,0.5,0.7,3,2,1,"best",1,NA,0.785714285714286,0.333333333333333,0,775.683333333333,0.7,40.9,0.7,"data"
"115",835,"regret_late",1,27,38,685,NA,NA,NA,NA,NA,NA,NA,NA,NA,9.2,45,0,3,"noregret",3,0,4,26,NA,0.2,0.5,0.7,3,2,1,"best",1,NA,0.785714285714286,0.333333333333333,0,775.683333333333,0.7,40.9,0.7,"data"
"116",835,"regret_late",1,28,39,669,NA,NA,NA,NA,NA,NA,NA,NA,NA,9.2,45,0,3,"noregret",3,0,4,27,NA,0.2,0.5,0.7,3,2,1,"best",1,NA,0.785714285714286,0.333333333333333,0,775.683333333333,0.7,40.9,0.7,"data"
"117",835,"regret_late",1,29,40,630,NA,NA,NA,NA,NA,NA,NA,NA,NA,9.2,45,0,3,"noregret",3,0,4,28,NA,0.2,0.5,0.7,3,2,1,"best",1,NA,0.785714285714286,0.333333333333333,0,775.683333333333,0.7,40.9,0.7,"data"
"118",835,"regret_late",1,30,41,672,NA,NA,NA,NA,NA,NA,NA,NA,NA,9.2,45,0,3,"noregret",3,0,4,29,NA,0.2,0.5,0.7,3,2,1,"best",1,NA,0.785714285714286,0.333333333333333,0,775.683333333333,0.7,40.9,0.7,"data"
"119",835,"regret_late",0,30,42,646,NA,NA,NA,NA,NA,NA,NA,NA,NA,9.2,45,0,3,"noregret",3,0,4,30,NA,0.2,0.5,0.7,3,2,1,"best",1,NA,0.785714285714286,0.333333333333333,0,775.683333333333,0.7,40.9,0.7,"data"
"120",835,"regret_late",0,30,NA,3724,NA,NA,NA,NA,NA,NA,NA,NA,"0",9.2,45,0,NA,"regret",3,0,4,30,NA,NA,NA,NA,3,NA,NA,NA,NA,NA,0.785714285714286,0.333333333333333,0,775.683333333333,NA,40.9,0.7,"data"
"121",835,"regret_late",0,30,43,476,NA,NA,NA,NA,NA,NA,NA,NA,NA,9.2,45,1,3,"noregret",3,0,4,30,"0",0.2,0.5,0.7,3,2,1,"best",1,NA,0.785714285714286,0.333333333333333,0,775.683333333333,0.7,40.9,NA,"data"
"122",835,"regret_late",0,30,NA,3120,NA,NA,NA,NA,NA,NA,NA,NA,"18",9.2,45,0,NA,"regret",3,0,4,30,NA,NA,NA,NA,3,NA,NA,NA,NA,NA,0.785714285714286,0.333333333333333,0,775.683333333333,NA,40.9,0.7,"data"
"123",835,"regret_late",1,31,44,491,NA,NA,NA,NA,NA,NA,NA,NA,NA,9.2,45,1,3,"noregret",3,0,4,30,"18",0.2,0.5,0.7,3,2,1,"best",1,NA,0.785714285714286,0.333333333333333,0,775.683333333333,0.7,40.9,NA,"data"
"124",835,"regret_late",1,32,45,598,NA,NA,NA,NA,NA,NA,NA,NA,NA,9.2,45,0,3,"noregret",3,0,4,31,NA,0.2,0.5,0.7,3,2,1,"best",1,NA,0.785714285714286,0.333333333333333,0,775.683333333333,0.7,40.9,0.7,"data"
"125",835,"regret_late",0,32,46,613,NA,NA,NA,NA,NA,NA,NA,NA,NA,9.2,45,0,3,"noregret",3,0,4,32,NA,0.2,0.5,0.7,3,2,1,"best",1,NA,0.785714285714286,0.333333333333333,0,775.683333333333,0.7,40.9,0.7,"data"
"126",835,"regret_late",0,32,NA,2602,NA,NA,NA,NA,NA,NA,NA,NA,"19",9.2,45,0,NA,"regret",3,0,4,32,NA,NA,NA,NA,3,NA,NA,NA,NA,NA,0.785714285714286,0.333333333333333,0,775.683333333333,NA,40.9,0.7,"data"
"127",835,"regret_late",1,33,47,474,NA,NA,NA,NA,NA,NA,NA,NA,NA,9.2,45,1,3,"noregret",3,0,4,32,"19",0.2,0.5,0.7,3,2,1,"best",1,NA,0.785714285714286,0.333333333333333,0,775.683333333333,0.7,40.9,NA,"data"
"128",835,"regret_late",1,34,48,448,NA,NA,NA,NA,NA,NA,NA,NA,NA,9.2,45,0,3,"noregret",3,0,4,33,NA,0.2,0.5,0.7,3,2,1,"best",1,NA,0.785714285714286,0.333333333333333,0,775.683333333333,0.7,40.9,0.7,"data"
"129",835,"regret_late",1,35,49,570,NA,NA,NA,NA,NA,NA,NA,NA,NA,9.2,45,0,3,"noregret",3,0,4,34,NA,0.2,0.5,0.7,3,2,1,"best",1,NA,0.785714285714286,0.333333333333333,0,775.683333333333,0.7,40.9,0.7,"data"
"130",835,"regret_late",1,36,50,524,NA,NA,NA,NA,NA,NA,NA,NA,NA,9.2,45,0,3,"noregret",3,0,4,35,NA,0.2,0.5,0.7,3,2,1,"best",1,NA,0.785714285714286,0.333333333333333,0,775.683333333333,0.7,40.9,0.7,"data"
"131",835,"regret_late",1,37,51,673,NA,NA,NA,NA,NA,NA,NA,NA,NA,9.2,45,0,3,"noregret",3,0,4,36,NA,0.2,0.5,0.7,3,2,1,"best",1,NA,0.785714285714286,0.333333333333333,0,775.683333333333,0.7,40.9,0.7,"data"
"132",835,"regret_late",1,38,52,707,NA,NA,NA,NA,NA,NA,NA,NA,NA,9.2,45,0,3,"noregret",3,0,4,37,NA,0.2,0.5,0.7,3,2,1,"best",1,NA,0.785714285714286,0.333333333333333,0,775.683333333333,0.7,40.9,0.7,"data"
"133",835,"regret_late",1,39,53,705,NA,NA,NA,NA,NA,NA,NA,NA,NA,9.2,45,0,3,"noregret",3,0,4,38,NA,0.2,0.5,0.7,3,2,1,"best",1,NA,0.785714285714286,0.333333333333333,0,775.683333333333,0.7,40.9,0.7,"data"
"134",835,"regret_late",1,40,54,861,NA,NA,NA,NA,NA,NA,NA,NA,NA,9.2,45,0,3,"noregret",3,0,4,39,NA,0.2,0.5,0.7,3,2,1,"best",1,NA,0.785714285714286,0.333333333333333,0,775.683333333333,0.7,40.9,0.7,"data"
"135",835,"regret_late",1,41,55,878,NA,NA,NA,NA,NA,NA,NA,NA,NA,9.2,45,0,3,"noregret",3,0,4,40,NA,0.2,0.5,0.7,3,2,1,"best",1,NA,0.785714285714286,0.333333333333333,0,775.683333333333,0.7,40.9,0.7,"data"
"136",835,"regret_late",1,42,56,905,NA,NA,NA,NA,NA,NA,NA,NA,NA,9.2,45,0,3,"noregret",3,0,4,41,NA,0.2,0.5,0.7,3,2,1,"best",1,NA,0.785714285714286,0.333333333333333,0,775.683333333333,0.7,40.9,0.7,"data"
"137",835,"regret_late",0,42,57,753,NA,NA,NA,NA,NA,NA,NA,NA,NA,9.2,45,0,3,"noregret",3,0,4,42,NA,0.2,0.5,0.7,3,2,1,"best",1,NA,0.785714285714286,0.333333333333333,0,775.683333333333,0.7,40.9,0.7,"data"
"138",835,"regret_late",0,42,NA,2828,NA,NA,NA,NA,NA,NA,NA,NA,"6",9.2,45,0,NA,"regret",3,0,4,42,NA,NA,NA,NA,3,NA,NA,NA,NA,NA,0.785714285714286,0.333333333333333,0,775.683333333333,NA,40.9,0.7,"data"
"139",835,"regret_late",1,43,58,503,NA,NA,NA,NA,NA,NA,NA,NA,NA,9.2,45,1,3,"noregret",3,0,4,42,"6",0.2,0.5,0.7,3,2,1,"best",1,NA,0.785714285714286,0.333333333333333,0,775.683333333333,0.7,40.9,NA,"data"
"140",835,"regret_late",1,44,59,627,NA,NA,NA,NA,NA,NA,NA,NA,NA,9.2,45,0,3,"noregret",3,0,4,43,NA,0.2,0.5,0.7,3,2,1,"best",1,NA,0.785714285714286,0.333333333333333,0,775.683333333333,0.7,40.9,0.7,"data"
"141",835,"regret_late",1,45,60,1857,NA,NA,NA,NA,NA,NA,NA,NA,NA,9.2,45,0,3,"noregret",3,0,4,44,NA,0.2,0.5,0.7,3,2,1,"best",1,NA,0.785714285714286,0.333333333333333,0,775.683333333333,0.7,40.9,0.7,"data"
"142",835,"regret_late",0,45,61,46700,"28","Multiracial/Mixed","Female","","I went with how many ripe apples I saw and went with it.",1,4,90,NA,9.2,45,0,NA,"noregret",3,0,4,45,NA,NA,NA,NA,3,NA,NA,NA,NA,0,0.785714285714286,0.333333333333333,0,775.683333333333,NA,40.9,0.7,"data"
"143",753,"regret_late",1,1,1,4253,NA,NA,NA,NA,NA,NA,NA,NA,NA,99.9285714285714,31,0,1,"noregret",NA,0,55,NA,NA,0.7,0.5,0.2,1,2,3,"best",1,NA,0.842105263157895,0.44,0.25,697,0.7,29,NA,"data"
"144",753,"regret_late",1,2,2,1304,NA,NA,NA,NA,NA,NA,NA,NA,NA,99.9285714285714,31,0,2,"noregret",1,1,55,1,NA,0.7,0.5,0.2,1,2,3,"medium",0,NA,0.842105263157895,0.44,0.25,697,0.5,29,0.7,"data"
"145",753,"regret_late",0,2,3,699,NA,NA,NA,NA,NA,NA,NA,NA,NA,99.9285714285714,31,0,3,"noregret",2,1,55,2,NA,0.7,0.5,0.2,1,2,3,"worst",0,NA,0.842105263157895,0.44,0.25,697,0.2,29,0.5,"data"
"146",753,"regret_late",1,3,4,1077,NA,NA,NA,NA,NA,NA,NA,NA,NA,99.9285714285714,31,0,1,"noregret",3,1,55,2,NA,0.7,0.5,0.2,1,2,3,"best",1,NA,0.842105263157895,0.44,0.25,697,0.7,29,0.2,"data"
"147",753,"regret_late",0,3,5,2098,NA,NA,NA,NA,NA,NA,NA,NA,NA,99.9285714285714,31,0,2,"noregret",1,1,55,3,NA,0.7,0.5,0.2,1,2,3,"medium",0,NA,0.842105263157895,0.44,0.25,697,0.5,29,0.7,"data"
"148",753,"regret_late",0,3,6,623,NA,NA,NA,NA,NA,NA,NA,NA,NA,99.9285714285714,31,0,1,"noregret",2,1,55,3,NA,0.7,0.5,0.2,1,2,3,"best",1,NA,0.842105263157895,0.44,0.25,697,0.7,29,0.5,"data"
"149",753,"regret_late",0,3,7,649,NA,NA,NA,NA,NA,NA,NA,NA,NA,99.9285714285714,31,0,3,"noregret",1,1,55,3,NA,0.7,0.5,0.2,1,2,3,"worst",0,NA,0.842105263157895,0.44,0.25,697,0.2,29,0.7,"data"
"150",753,"regret_late",0,3,8,699,NA,NA,NA,NA,NA,NA,NA,NA,NA,99.9285714285714,31,0,2,"noregret",3,1,55,3,NA,0.7,0.5,0.2,1,2,3,"medium",0,NA,0.842105263157895,0.44,0.25,697,0.5,29,0.2,"data"
"151",753,"regret_late",1,4,9,982,NA,NA,NA,NA,NA,NA,NA,NA,NA,99.9285714285714,31,0,1,"noregret",2,1,55,3,NA,0.7,0.5,0.2,1,2,3,"best",1,NA,0.842105263157895,0.44,0.25,697,0.7,29,0.5,"data"
"152",753,"regret_late",0,4,10,581,NA,NA,NA,NA,NA,NA,NA,NA,NA,99.9285714285714,31,0,2,"noregret",1,1,55,4,NA,0.7,0.5,0.2,1,2,3,"medium",0,NA,0.842105263157895,0.44,0.25,697,0.5,29,0.7,"data"
"153",753,"regret_late",0,4,11,498,NA,NA,NA,NA,NA,NA,NA,NA,NA,99.9285714285714,31,0,3,"noregret",2,1,55,4,NA,0.7,0.5,0.2,1,2,3,"worst",0,NA,0.842105263157895,0.44,0.25,697,0.2,29,0.5,"data"
"154",753,"regret_late",1,5,12,716,NA,NA,NA,NA,NA,NA,NA,NA,NA,99.9285714285714,31,0,1,"noregret",3,1,55,4,NA,0.7,0.5,0.2,1,2,3,"best",1,NA,0.842105263157895,0.44,0.25,697,0.7,29,0.2,"data"
"155",753,"regret_late",0,5,13,644,NA,NA,NA,NA,NA,NA,NA,NA,NA,99.9285714285714,31,0,2,"noregret",1,1,55,5,NA,0.7,0.5,0.2,1,2,3,"medium",0,NA,0.842105263157895,0.44,0.25,697,0.5,29,0.7,"data"
"156",753,"regret_late",1,6,14,588,NA,NA,NA,NA,NA,NA,NA,NA,NA,99.9285714285714,31,0,3,"noregret",2,1,55,5,NA,0.7,0.5,0.2,1,2,3,"worst",0,NA,0.842105263157895,0.44,0.25,697,0.2,29,0.5,"data"
"157",753,"regret_late",1,7,15,585,NA,NA,NA,NA,NA,NA,NA,NA,NA,99.9285714285714,31,0,1,"noregret",3,1,55,6,NA,0.7,0.5,0.2,1,2,3,"best",1,NA,0.842105263157895,0.44,0.25,697,0.7,29,0.2,"data"
"158",753,"regret_late",1,8,16,539,NA,NA,NA,NA,NA,NA,NA,NA,NA,99.9285714285714,31,0,2,"noregret",1,1,55,7,NA,0.7,0.5,0.2,1,2,3,"medium",0,NA,0.842105263157895,0.44,0.25,697,0.5,29,0.7,"data"
"159",753,"regret_late",1,9,17,549,NA,NA,NA,NA,NA,NA,NA,NA,NA,99.9285714285714,31,0,3,"noregret",2,1,55,8,NA,0.7,0.5,0.2,1,2,3,"worst",0,NA,0.842105263157895,0.44,0.25,697,0.2,29,0.5,"data"
"160",753,"regret_late",1,10,18,555,NA,NA,NA,NA,NA,NA,NA,NA,NA,99.9285714285714,31,0,1,"noregret",3,1,55,9,NA,0.7,0.5,0.2,1,2,3,"best",1,NA,0.842105263157895,0.44,0.25,697,0.7,29,0.2,"data"
"161",753,"regret_late",0,10,19,345,NA,NA,NA,NA,NA,NA,NA,NA,NA,99.9285714285714,31,0,2,"noregret",1,1,55,10,NA,0.7,0.5,0.2,1,2,3,"medium",0,NA,0.842105263157895,0.44,0.25,697,0.5,29,0.7,"data"
"162",753,"regret_late",0,10,20,404,NA,NA,NA,NA,NA,NA,NA,NA,NA,99.9285714285714,31,0,3,"noregret",2,1,55,10,NA,0.7,0.5,0.2,1,2,3,"worst",0,NA,0.842105263157895,0.44,0.25,697,0.2,29,0.5,"data"
"163",753,"regret_late",1,11,21,344,NA,NA,NA,NA,NA,NA,NA,NA,NA,99.9285714285714,31,0,1,"noregret",3,1,55,10,NA,0.7,0.5,0.2,1,2,3,"best",1,NA,0.842105263157895,0.44,0.25,697,0.7,29,0.2,"data"
"164",753,"regret_late",0,11,22,297,NA,NA,NA,NA,NA,NA,NA,NA,NA,99.9285714285714,31,0,2,"noregret",1,1,55,11,NA,0.7,0.5,0.2,1,2,3,"medium",0,NA,0.842105263157895,0.44,0.25,697,0.5,29,0.7,"data"
"165",753,"regret_late",0,11,23,353,NA,NA,NA,NA,NA,NA,NA,NA,NA,99.9285714285714,31,0,3,"noregret",2,1,55,11,NA,0.7,0.5,0.2,1,2,3,"worst",0,NA,0.842105263157895,0.44,0.25,697,0.2,29,0.5,"data"
"166",753,"regret_late",1,12,24,325,NA,NA,NA,NA,NA,NA,NA,NA,NA,99.9285714285714,31,0,1,"noregret",3,1,55,11,NA,0.7,0.5,0.2,1,2,3,"best",1,NA,0.842105263157895,0.44,0.25,697,0.7,29,0.2,"data"
"167",753,"regret_late",0,12,25,270,NA,NA,NA,NA,NA,NA,NA,NA,NA,99.9285714285714,31,0,2,"noregret",1,1,55,12,NA,0.7,0.5,0.2,1,2,3,"medium",0,NA,0.842105263157895,0.44,0.25,697,0.5,29,0.7,"data"
"168",753,"regret_late",0,12,26,309,NA,NA,NA,NA,NA,NA,NA,NA,NA,99.9285714285714,31,0,3,"noregret",2,1,55,12,NA,0.7,0.5,0.2,1,2,3,"worst",0,NA,0.842105263157895,0.44,0.25,697,0.2,29,0.5,"data"
"169",753,"regret_late",1,13,27,533,NA,NA,NA,NA,NA,NA,NA,NA,NA,99.9285714285714,31,0,1,"noregret",3,1,55,12,NA,0.7,0.5,0.2,1,2,3,"best",1,NA,0.842105263157895,0.44,0.25,697,0.7,29,0.2,"data"
"170",753,"regret_late",1,14,28,265,NA,NA,NA,NA,NA,NA,NA,NA,NA,99.9285714285714,31,0,2,"noregret",1,1,55,13,NA,0.7,0.5,0.2,1,2,3,"medium",0,NA,0.842105263157895,0.44,0.25,697,0.5,29,0.7,"data"
"171",753,"regret_late",0,14,29,430,NA,NA,NA,NA,NA,NA,NA,NA,NA,99.9285714285714,31,0,3,"noregret",2,1,55,14,NA,0.7,0.5,0.2,1,2,3,"worst",0,NA,0.842105263157895,0.44,0.25,697,0.2,29,0.5,"data"
"172",753,"regret_late",1,15,30,615,NA,NA,NA,NA,NA,NA,NA,NA,NA,99.9285714285714,31,0,2,"noregret",3,1,55,14,NA,0.7,0.5,0.2,1,2,3,"medium",0,NA,0.842105263157895,0.44,0.25,697,0.5,29,0.2,"data"
"173",753,"regret_late",0,15,31,2056,NA,NA,NA,NA,NA,NA,NA,NA,NA,99.9285714285714,31,0,2,"noregret",2,0,55,15,NA,0.7,0.5,0.2,1,2,3,"medium",0,NA,0.842105263157895,0.44,0.25,697,0.5,29,0.5,"data"
"174",753,"regret_late",0,15,NA,5990,NA,NA,NA,NA,NA,NA,NA,NA,"100",99.9285714285714,31,0,NA,"regret",2,0,55,15,NA,NA,NA,NA,1,NA,NA,NA,NA,NA,0.842105263157895,0.44,0.25,697,NA,29,0.5,"data"
"175",753,"regret_late",1,16,32,1732,NA,NA,NA,NA,NA,NA,NA,NA,NA,99.9285714285714,31,1,1,"noregret",2,1,55,15,"100",0.7,0.5,0.2,1,2,3,"best",1,NA,0.842105263157895,0.44,0.25,697,0.7,29,NA,"data"
"176",753,"regret_late",0,16,33,1472,NA,NA,NA,NA,NA,NA,NA,NA,NA,99.9285714285714,31,0,1,"noregret",1,0,55,16,NA,0.7,0.5,0.2,1,2,3,"best",1,NA,0.842105263157895,0.44,0.25,697,0.7,29,0.7,"data"
"177",753,"regret_late",0,16,NA,4327,NA,NA,NA,NA,NA,NA,NA,NA,"100",99.9285714285714,31,0,NA,"regret",1,0,55,16,NA,NA,NA,NA,1,NA,NA,NA,NA,NA,0.842105263157895,0.44,0.25,697,NA,29,0.7,"data"
"178",753,"regret_late",1,17,34,4677,NA,NA,NA,NA,NA,NA,NA,NA,NA,99.9285714285714,31,1,2,"noregret",1,1,55,16,"100",0.7,0.5,0.2,1,2,3,"medium",0,NA,0.842105263157895,0.44,0.25,697,0.5,29,NA,"data"
"179",753,"regret_late",0,17,35,677,NA,NA,NA,NA,NA,NA,NA,NA,NA,99.9285714285714,31,0,3,"noregret",2,1,55,17,NA,0.7,0.5,0.2,1,2,3,"worst",0,NA,0.842105263157895,0.44,0.25,697,0.2,29,0.5,"data"
"180",753,"regret_late",0,17,NA,2444,NA,NA,NA,NA,NA,NA,NA,NA,"100",99.9285714285714,31,0,NA,"regret",3,0,55,17,NA,NA,NA,NA,1,NA,NA,NA,NA,NA,0.842105263157895,0.44,0.25,697,NA,29,0.2,"data"
"181",753,"regret_late",0,17,36,358,NA,NA,NA,NA,NA,NA,NA,NA,NA,99.9285714285714,31,1,2,"noregret",3,1,55,17,"100",0.7,0.5,0.2,1,2,3,"medium",0,NA,0.842105263157895,0.44,0.25,697,0.5,29,NA,"data"
"182",753,"regret_late",0,17,NA,1671,NA,NA,NA,NA,NA,NA,NA,NA,"100",99.9285714285714,31,0,NA,"regret",2,0,55,17,NA,NA,NA,NA,1,NA,NA,NA,NA,NA,0.842105263157895,0.44,0.25,697,NA,29,0.5,"data"
"183",753,"regret_late",1,18,37,374,NA,NA,NA,NA,NA,NA,NA,NA,NA,99.9285714285714,31,1,2,"noregret",2,0,55,17,"100",0.7,0.5,0.2,1,2,3,"medium",0,NA,0.842105263157895,0.44,0.25,697,0.5,29,NA,"data"
"184",753,"regret_late",0,18,38,1050,NA,NA,NA,NA,NA,NA,NA,NA,NA,99.9285714285714,31,0,1,"noregret",2,1,55,18,NA,0.7,0.5,0.2,1,2,3,"best",1,NA,0.842105263157895,0.44,0.25,697,0.7,29,0.5,"data"
"185",753,"regret_late",0,18,NA,1840,NA,NA,NA,NA,NA,NA,NA,NA,"100",99.9285714285714,31,0,NA,"regret",1,0,55,18,NA,NA,NA,NA,1,NA,NA,NA,NA,NA,0.842105263157895,0.44,0.25,697,NA,29,0.7,"data"
"186",753,"regret_late",1,19,39,138,NA,NA,NA,NA,NA,NA,NA,NA,NA,99.9285714285714,31,1,3,"noregret",1,1,55,18,"100",0.7,0.5,0.2,1,2,3,"worst",0,NA,0.842105263157895,0.44,0.25,697,0.2,29,NA,"data"
"187",753,"regret_late",0,19,40,533,NA,NA,NA,NA,NA,NA,NA,NA,NA,99.9285714285714,31,0,2,"noregret",3,1,55,19,NA,0.7,0.5,0.2,1,2,3,"medium",0,NA,0.842105263157895,0.44,0.25,697,0.5,29,0.2,"data"
"188",753,"regret_late",0,19,NA,1592,NA,NA,NA,NA,NA,NA,NA,NA,"100",99.9285714285714,31,0,NA,"regret",2,0,55,19,NA,NA,NA,NA,1,NA,NA,NA,NA,NA,0.842105263157895,0.44,0.25,697,NA,29,0.5,"data"
"189",753,"regret_late",1,20,41,204,NA,NA,NA,NA,NA,NA,NA,NA,NA,99.9285714285714,31,1,1,"noregret",2,1,55,19,"100",0.7,0.5,0.2,1,2,3,"best",1,NA,0.842105263157895,0.44,0.25,697,0.7,29,NA,"data"
"190",753,"regret_late",0,20,42,477,NA,NA,NA,NA,NA,NA,NA,NA,NA,99.9285714285714,31,0,2,"noregret",1,1,55,20,NA,0.7,0.5,0.2,1,2,3,"medium",0,NA,0.842105263157895,0.44,0.25,697,0.5,29,0.7,"data"
"191",753,"regret_late",0,20,NA,2234,NA,NA,NA,NA,NA,NA,NA,NA,"100",99.9285714285714,31,0,NA,"regret",2,0,55,20,NA,NA,NA,NA,1,NA,NA,NA,NA,NA,0.842105263157895,0.44,0.25,697,NA,29,0.5,"data"
"192",753,"regret_late",1,21,43,383,NA,NA,NA,NA,NA,NA,NA,NA,NA,99.9285714285714,31,1,2,"noregret",2,0,55,20,"100",0.7,0.5,0.2,1,2,3,"medium",0,NA,0.842105263157895,0.44,0.25,697,0.5,29,NA,"data"
"193",753,"regret_late",1,22,44,364,NA,NA,NA,NA,NA,NA,NA,NA,NA,99.9285714285714,31,0,3,"noregret",2,1,55,21,NA,0.7,0.5,0.2,1,2,3,"worst",0,NA,0.842105263157895,0.44,0.25,697,0.2,29,0.5,"data"
"194",753,"regret_late",1,23,45,440,NA,NA,NA,NA,NA,NA,NA,NA,NA,99.9285714285714,31,0,1,"noregret",3,1,55,22,NA,0.7,0.5,0.2,1,2,3,"best",1,NA,0.842105263157895,0.44,0.25,697,0.7,29,0.2,"data"
"195",753,"regret_late",1,24,46,339,NA,NA,NA,NA,NA,NA,NA,NA,NA,99.9285714285714,31,0,2,"noregret",1,1,55,23,NA,0.7,0.5,0.2,1,2,3,"medium",0,NA,0.842105263157895,0.44,0.25,697,0.5,29,0.7,"data"
"196",753,"regret_late",0,24,47,288,NA,NA,NA,NA,NA,NA,NA,NA,NA,99.9285714285714,31,0,3,"noregret",2,1,55,24,NA,0.7,0.5,0.2,1,2,3,"worst",0,NA,0.842105263157895,0.44,0.25,697,0.2,29,0.5,"data"
"197",753,"regret_late",0,24,NA,1691,NA,NA,NA,NA,NA,NA,NA,NA,"99",99.9285714285714,31,0,NA,"regret",3,0,55,24,NA,NA,NA,NA,1,NA,NA,NA,NA,NA,0.842105263157895,0.44,0.25,697,NA,29,0.2,"data"
"198",753,"regret_late",0,24,48,287,NA,NA,NA,NA,NA,NA,NA,NA,NA,99.9285714285714,31,1,2,"noregret",3,1,55,24,"99",0.7,0.5,0.2,1,2,3,"medium",0,NA,0.842105263157895,0.44,0.25,697,0.5,29,NA,"data"
"199",753,"regret_late",0,24,NA,3399,NA,NA,NA,NA,NA,NA,NA,NA,"100",99.9285714285714,31,0,NA,"regret",2,0,55,24,NA,NA,NA,NA,1,NA,NA,NA,NA,NA,0.842105263157895,0.44,0.25,697,NA,29,0.5,"data"
"200",753,"regret_late",1,25,49,664,NA,NA,NA,NA,NA,NA,NA,NA,NA,99.9285714285714,31,1,1,"noregret",2,1,55,24,"100",0.7,0.5,0.2,1,2,3,"best",1,NA,0.842105263157895,0.44,0.25,697,0.7,29,NA,"data"
"201",753,"regret_late",1,26,50,486,NA,NA,NA,NA,NA,NA,NA,NA,NA,99.9285714285714,31,0,2,"noregret",1,1,55,25,NA,0.7,0.5,0.2,1,2,3,"medium",0,NA,0.842105263157895,0.44,0.25,697,0.5,29,0.7,"data"
"202",753,"regret_late",0,26,51,543,NA,NA,NA,NA,NA,NA,NA,NA,NA,99.9285714285714,31,0,3,"noregret",2,1,55,26,NA,0.7,0.5,0.2,1,2,3,"worst",0,NA,0.842105263157895,0.44,0.25,697,0.2,29,0.5,"data"
"203",753,"regret_late",0,26,NA,1769,NA,NA,NA,NA,NA,NA,NA,NA,"100",99.9285714285714,31,0,NA,"regret",3,0,55,26,NA,NA,NA,NA,1,NA,NA,NA,NA,NA,0.842105263157895,0.44,0.25,697,NA,29,0.2,"data"
"204",753,"regret_late",0,26,52,314,NA,NA,NA,NA,NA,NA,NA,NA,NA,99.9285714285714,31,1,2,"noregret",3,1,55,26,"100",0.7,0.5,0.2,1,2,3,"medium",0,NA,0.842105263157895,0.44,0.25,697,0.5,29,NA,"data"
"205",753,"regret_late",0,26,NA,2728,NA,NA,NA,NA,NA,NA,NA,NA,"100",99.9285714285714,31,0,NA,"regret",2,0,55,26,NA,NA,NA,NA,1,NA,NA,NA,NA,NA,0.842105263157895,0.44,0.25,697,NA,29,0.5,"data"
"206",753,"regret_late",1,27,53,252,NA,NA,NA,NA,NA,NA,NA,NA,NA,99.9285714285714,31,1,1,"noregret",2,1,55,26,"100",0.7,0.5,0.2,1,2,3,"best",1,NA,0.842105263157895,0.44,0.25,697,0.7,29,NA,"data"
"207",753,"regret_late",1,28,54,236,NA,NA,NA,NA,NA,NA,NA,NA,NA,99.9285714285714,31,0,2,"noregret",1,1,55,27,NA,0.7,0.5,0.2,1,2,3,"medium",0,NA,0.842105263157895,0.44,0.25,697,0.5,29,0.7,"data"
"208",753,"regret_late",0,28,55,255,NA,NA,NA,NA,NA,NA,NA,NA,NA,99.9285714285714,31,0,3,"noregret",2,1,55,28,NA,0.7,0.5,0.2,1,2,3,"worst",0,NA,0.842105263157895,0.44,0.25,697,0.2,29,0.5,"data"
"209",753,"regret_late",0,28,NA,1711,NA,NA,NA,NA,NA,NA,NA,NA,"100",99.9285714285714,31,0,NA,"regret",3,0,55,28,NA,NA,NA,NA,1,NA,NA,NA,NA,NA,0.842105263157895,0.44,0.25,697,NA,29,0.2,"data"
"210",753,"regret_late",1,29,56,298,NA,NA,NA,NA,NA,NA,NA,NA,NA,99.9285714285714,31,1,1,"noregret",3,1,55,28,"100",0.7,0.5,0.2,1,2,3,"best",1,NA,0.842105263157895,0.44,0.25,697,0.7,29,NA,"data"
"211",753,"regret_late",0,29,57,85,NA,NA,NA,NA,NA,NA,NA,NA,NA,99.9285714285714,31,0,2,"noregret",1,1,55,29,NA,0.7,0.5,0.2,1,2,3,"medium",0,NA,0.842105263157895,0.44,0.25,697,0.5,29,0.7,"data"
"212",753,"regret_late",0,29,NA,2425,NA,NA,NA,NA,NA,NA,NA,NA,"100",99.9285714285714,31,0,NA,"regret",2,0,55,29,NA,NA,NA,NA,1,NA,NA,NA,NA,NA,0.842105263157895,0.44,0.25,697,NA,29,0.5,"data"
"213",753,"regret_late",1,30,58,206,NA,NA,NA,NA,NA,NA,NA,NA,NA,99.9285714285714,31,1,1,"noregret",2,1,55,29,"100",0.7,0.5,0.2,1,2,3,"best",1,NA,0.842105263157895,0.44,0.25,697,0.7,29,NA,"data"
"214",753,"regret_late",1,31,59,481,NA,NA,NA,NA,NA,NA,NA,NA,NA,99.9285714285714,31,0,2,"noregret",1,1,55,30,NA,0.7,0.5,0.2,1,2,3,"medium",0,NA,0.842105263157895,0.44,0.25,697,0.5,29,0.7,"data"
"215",753,"regret_late",0,31,60,22,NA,NA,NA,NA,NA,NA,NA,NA,NA,99.9285714285714,31,0,3,"noregret",2,1,55,31,NA,0.7,0.5,0.2,1,2,3,"worst",0,NA,0.842105263157895,0.44,0.25,697,0.2,29,0.5,"data"
"216",753,"regret_late",0,31,NA,1553,NA,NA,NA,NA,NA,NA,NA,NA,"100",99.9285714285714,31,0,NA,"regret",3,0,55,31,NA,NA,NA,NA,1,NA,NA,NA,NA,NA,0.842105263157895,0.44,0.25,697,NA,29,0.2,"data"
"217",753,"regret_late",0,31,61,25130,"20","White","Male","Non-Hispanic","",3,1,14,NA,99.9285714285714,31,1,NA,"noregret",3,0,55,31,"100",NA,NA,NA,1,NA,NA,NA,NA,0,0.842105263157895,0.44,0.25,697,NA,29,NA,"data"
"218",833,"regret_late",0,0,1,2441,NA,NA,NA,NA,NA,NA,NA,NA,NA,68.6470588235294,30,0,1,"noregret",NA,0,40,NA,NA,0.5,0.7,0.2,2,1,3,"medium",0,NA,0.652173913043478,0.5,0.181818181818182,1114.2,0.5,31.3,NA,"data"
"219",833,"regret_late",1,1,2,1803,NA,NA,NA,NA,NA,NA,NA,NA,NA,68.6470588235294,30,0,1,"noregret",1,0,40,0,NA,0.5,0.7,0.2,2,1,3,"medium",0,NA,0.652173913043478,0.5,0.181818181818182,1114.2,0.5,31.3,0.5,"data"
"220",833,"regret_late",0,1,3,751,NA,NA,NA,NA,NA,NA,NA,NA,NA,68.6470588235294,30,0,1,"noregret",1,0,40,1,NA,0.5,0.7,0.2,2,1,3,"medium",0,NA,0.652173913043478,0.5,0.181818181818182,1114.2,0.5,31.3,0.5,"data"
"221",833,"regret_late",0,1,4,3575,NA,NA,NA,NA,NA,NA,NA,NA,NA,68.6470588235294,30,0,2,"noregret",1,1,40,1,NA,0.5,0.7,0.2,2,1,3,"best",1,NA,0.652173913043478,0.5,0.181818181818182,1114.2,0.7,31.3,0.5,"data"
"222",833,"regret_late",1,2,5,817,NA,NA,NA,NA,NA,NA,NA,NA,NA,68.6470588235294,30,0,1,"noregret",2,1,40,1,NA,0.5,0.7,0.2,2,1,3,"medium",0,NA,0.652173913043478,0.5,0.181818181818182,1114.2,0.5,31.3,0.7,"data"
"223",833,"regret_late",1,3,6,1248,NA,NA,NA,NA,NA,NA,NA,NA,NA,68.6470588235294,30,0,3,"noregret",1,1,40,2,NA,0.5,0.7,0.2,2,1,3,"worst",0,NA,0.652173913043478,0.5,0.181818181818182,1114.2,0.2,31.3,0.5,"data"
"224",833,"regret_late",0,3,7,2237,NA,NA,NA,NA,NA,NA,NA,NA,NA,68.6470588235294,30,0,2,"noregret",3,1,40,3,NA,0.5,0.7,0.2,2,1,3,"best",1,NA,0.652173913043478,0.5,0.181818181818182,1114.2,0.7,31.3,0.2,"data"
"225",833,"regret_late",1,4,8,767,NA,NA,NA,NA,NA,NA,NA,NA,NA,68.6470588235294,30,0,1,"noregret",2,1,40,3,NA,0.5,0.7,0.2,2,1,3,"medium",0,NA,0.652173913043478,0.5,0.181818181818182,1114.2,0.5,31.3,0.7,"data"
"226",833,"regret_late",0,4,9,1312,NA,NA,NA,NA,NA,NA,NA,NA,NA,68.6470588235294,30,0,3,"noregret",1,1,40,4,NA,0.5,0.7,0.2,2,1,3,"worst",0,NA,0.652173913043478,0.5,0.181818181818182,1114.2,0.2,31.3,0.5,"data"
"227",833,"regret_late",1,5,10,753,NA,NA,NA,NA,NA,NA,NA,NA,NA,68.6470588235294,30,0,1,"noregret",3,1,40,4,NA,0.5,0.7,0.2,2,1,3,"medium",0,NA,0.652173913043478,0.5,0.181818181818182,1114.2,0.5,31.3,0.2,"data"
"228",833,"regret_late",1,6,11,633,NA,NA,NA,NA,NA,NA,NA,NA,NA,68.6470588235294,30,0,2,"noregret",1,1,40,5,NA,0.5,0.7,0.2,2,1,3,"best",1,NA,0.652173913043478,0.5,0.181818181818182,1114.2,0.7,31.3,0.5,"data"
"229",833,"regret_late",0,6,12,918,NA,NA,NA,NA,NA,NA,NA,NA,NA,68.6470588235294,30,0,3,"noregret",2,1,40,6,NA,0.5,0.7,0.2,2,1,3,"worst",0,NA,0.652173913043478,0.5,0.181818181818182,1114.2,0.2,31.3,0.7,"data"
"230",833,"regret_late",1,7,13,996,NA,NA,NA,NA,NA,NA,NA,NA,NA,68.6470588235294,30,0,2,"noregret",3,1,40,6,NA,0.5,0.7,0.2,2,1,3,"best",1,NA,0.652173913043478,0.5,0.181818181818182,1114.2,0.7,31.3,0.2,"data"
"231",833,"regret_late",1,8,14,715,NA,NA,NA,NA,NA,NA,NA,NA,NA,68.6470588235294,30,0,1,"noregret",2,1,40,7,NA,0.5,0.7,0.2,2,1,3,"medium",0,NA,0.652173913043478,0.5,0.181818181818182,1114.2,0.5,31.3,0.7,"data"
"232",833,"regret_late",1,9,15,617,NA,NA,NA,NA,NA,NA,NA,NA,NA,68.6470588235294,30,0,2,"noregret",1,1,40,8,NA,0.5,0.7,0.2,2,1,3,"best",1,NA,0.652173913043478,0.5,0.181818181818182,1114.2,0.7,31.3,0.5,"data"
"233",833,"regret_late",1,10,16,613,NA,NA,NA,NA,NA,NA,NA,NA,NA,68.6470588235294,30,0,1,"noregret",2,1,40,9,NA,0.5,0.7,0.2,2,1,3,"medium",0,NA,0.652173913043478,0.5,0.181818181818182,1114.2,0.5,31.3,0.7,"data"
"234",833,"regret_late",1,11,17,470,NA,NA,NA,NA,NA,NA,NA,NA,NA,68.6470588235294,30,0,2,"noregret",1,1,40,10,NA,0.5,0.7,0.2,2,1,3,"best",1,NA,0.652173913043478,0.5,0.181818181818182,1114.2,0.7,31.3,0.5,"data"
"235",833,"regret_late",1,12,18,520,NA,NA,NA,NA,NA,NA,NA,NA,NA,68.6470588235294,30,0,1,"noregret",2,1,40,11,NA,0.5,0.7,0.2,2,1,3,"medium",0,NA,0.652173913043478,0.5,0.181818181818182,1114.2,0.5,31.3,0.7,"data"
"236",833,"regret_late",1,13,19,493,NA,NA,NA,NA,NA,NA,NA,NA,NA,68.6470588235294,30,0,2,"noregret",1,1,40,12,NA,0.5,0.7,0.2,2,1,3,"best",1,NA,0.652173913043478,0.5,0.181818181818182,1114.2,0.7,31.3,0.5,"data"
"237",833,"regret_late",0,13,20,497,NA,NA,NA,NA,NA,NA,NA,NA,NA,68.6470588235294,30,0,1,"noregret",2,1,40,13,NA,0.5,0.7,0.2,2,1,3,"medium",0,NA,0.652173913043478,0.5,0.181818181818182,1114.2,0.5,31.3,0.7,"data"
"238",833,"regret_late",0,13,21,1297,NA,NA,NA,NA,NA,NA,NA,NA,NA,68.6470588235294,30,0,1,"noregret",1,0,40,13,NA,0.5,0.7,0.2,2,1,3,"medium",0,NA,0.652173913043478,0.5,0.181818181818182,1114.2,0.5,31.3,0.5,"data"
"239",833,"regret_late",0,13,22,417,NA,NA,NA,NA,NA,NA,NA,NA,NA,68.6470588235294,30,0,2,"noregret",1,1,40,13,NA,0.5,0.7,0.2,2,1,3,"best",1,NA,0.652173913043478,0.5,0.181818181818182,1114.2,0.7,31.3,0.5,"data"
"240",833,"regret_late",0,13,23,684,NA,NA,NA,NA,NA,NA,NA,NA,NA,68.6470588235294,30,0,1,"noregret",2,1,40,13,NA,0.5,0.7,0.2,2,1,3,"medium",0,NA,0.652173913043478,0.5,0.181818181818182,1114.2,0.5,31.3,0.7,"data"
"241",833,"regret_late",0,13,24,669,NA,NA,NA,NA,NA,NA,NA,NA,NA,68.6470588235294,30,0,3,"noregret",1,1,40,13,NA,0.5,0.7,0.2,2,1,3,"worst",0,NA,0.652173913043478,0.5,0.181818181818182,1114.2,0.2,31.3,0.5,"data"
"242",833,"regret_late",0,13,25,635,NA,NA,NA,NA,NA,NA,NA,NA,NA,68.6470588235294,30,0,2,"noregret",3,1,40,13,NA,0.5,0.7,0.2,2,1,3,"best",1,NA,0.652173913043478,0.5,0.181818181818182,1114.2,0.7,31.3,0.2,"data"
"243",833,"regret_late",1,14,26,894,NA,NA,NA,NA,NA,NA,NA,NA,NA,68.6470588235294,30,0,2,"noregret",2,0,40,13,NA,0.5,0.7,0.2,2,1,3,"best",1,NA,0.652173913043478,0.5,0.181818181818182,1114.2,0.7,31.3,0.7,"data"
"244",833,"regret_late",1,15,27,530,NA,NA,NA,NA,NA,NA,NA,NA,NA,68.6470588235294,30,0,2,"noregret",2,0,40,14,NA,0.5,0.7,0.2,2,1,3,"best",1,NA,0.652173913043478,0.5,0.181818181818182,1114.2,0.7,31.3,0.7,"data"
"245",833,"regret_late",1,16,28,424,NA,NA,NA,NA,NA,NA,NA,NA,NA,68.6470588235294,30,0,2,"noregret",2,0,40,15,NA,0.5,0.7,0.2,2,1,3,"best",1,NA,0.652173913043478,0.5,0.181818181818182,1114.2,0.7,31.3,0.7,"data"
"246",833,"regret_late",1,17,29,581,NA,NA,NA,NA,NA,NA,NA,NA,NA,68.6470588235294,30,0,2,"noregret",2,0,40,16,NA,0.5,0.7,0.2,2,1,3,"best",1,NA,0.652173913043478,0.5,0.181818181818182,1114.2,0.7,31.3,0.7,"data"
"247",833,"regret_late",0,17,30,596,NA,NA,NA,NA,NA,NA,NA,NA,NA,68.6470588235294,30,0,1,"noregret",2,1,40,17,NA,0.5,0.7,0.2,2,1,3,"medium",0,NA,0.652173913043478,0.5,0.181818181818182,1114.2,0.5,31.3,0.7,"data"
"248",833,"regret_late",0,17,31,1378,NA,NA,NA,NA,NA,NA,NA,NA,NA,68.6470588235294,30,0,3,"noregret",1,1,40,17,NA,0.5,0.7,0.2,2,1,3,"worst",0,NA,0.652173913043478,0.5,0.181818181818182,1114.2,0.2,31.3,0.5,"data"
"249",833,"regret_late",0,17,NA,7064,NA,NA,NA,NA,NA,NA,NA,NA,"100",68.6470588235294,30,0,NA,"regret",3,0,40,17,NA,NA,NA,NA,2,NA,NA,NA,NA,NA,0.652173913043478,0.5,0.181818181818182,1114.2,NA,31.3,0.2,"data"
"250",833,"regret_late",0,17,32,1203,NA,NA,NA,NA,NA,NA,NA,NA,NA,68.6470588235294,30,1,1,"noregret",3,1,40,17,"100",0.5,0.7,0.2,2,1,3,"medium",0,NA,0.652173913043478,0.5,0.181818181818182,1114.2,0.5,31.3,NA,"data"
"251",833,"regret_late",0,17,NA,3575,NA,NA,NA,NA,NA,NA,NA,NA,"100",68.6470588235294,30,0,NA,"regret",1,0,40,17,NA,NA,NA,NA,2,NA,NA,NA,NA,NA,0.652173913043478,0.5,0.181818181818182,1114.2,NA,31.3,0.5,"data"
"252",833,"regret_late",1,18,33,1224,NA,NA,NA,NA,NA,NA,NA,NA,NA,68.6470588235294,30,1,1,"noregret",1,0,40,17,"100",0.5,0.7,0.2,2,1,3,"medium",0,NA,0.652173913043478,0.5,0.181818181818182,1114.2,0.5,31.3,NA,"data"
"253",833,"regret_late",0,18,34,1277,NA,NA,NA,NA,NA,NA,NA,NA,NA,68.6470588235294,30,0,1,"noregret",1,0,40,18,NA,0.5,0.7,0.2,2,1,3,"medium",0,NA,0.652173913043478,0.5,0.181818181818182,1114.2,0.5,31.3,0.5,"data"
"254",833,"regret_late",0,18,NA,2941,NA,NA,NA,NA,NA,NA,NA,NA,"100",68.6470588235294,30,0,NA,"regret",1,0,40,18,NA,NA,NA,NA,2,NA,NA,NA,NA,NA,0.652173913043478,0.5,0.181818181818182,1114.2,NA,31.3,0.5,"data"
"255",833,"regret_late",0,18,35,985,NA,NA,NA,NA,NA,NA,NA,NA,NA,68.6470588235294,30,1,1,"noregret",1,0,40,18,"100",0.5,0.7,0.2,2,1,3,"medium",0,NA,0.652173913043478,0.5,0.181818181818182,1114.2,0.5,31.3,NA,"data"
"256",833,"regret_late",0,18,NA,4305,NA,NA,NA,NA,NA,NA,NA,NA,"100",68.6470588235294,30,0,NA,"regret",1,0,40,18,NA,NA,NA,NA,2,NA,NA,NA,NA,NA,0.652173913043478,0.5,0.181818181818182,1114.2,NA,31.3,0.5,"data"
"257",833,"regret_late",0,18,36,2617,NA,NA,NA,NA,NA,NA,NA,NA,NA,68.6470588235294,30,1,2,"noregret",1,1,40,18,"100",0.5,0.7,0.2,2,1,3,"best",1,NA,0.652173913043478,0.5,0.181818181818182,1114.2,0.7,31.3,NA,"data"
"258",833,"regret_late",0,18,NA,3763,NA,NA,NA,NA,NA,NA,NA,NA,"0",68.6470588235294,30,0,NA,"regret",2,0,40,18,NA,NA,NA,NA,2,NA,NA,NA,NA,NA,0.652173913043478,0.5,0.181818181818182,1114.2,NA,31.3,0.7,"data"
"259",833,"regret_late",1,19,37,576,NA,NA,NA,NA,NA,NA,NA,NA,NA,68.6470588235294,30,1,2,"noregret",2,0,40,18,"0",0.5,0.7,0.2,2,1,3,"best",1,NA,0.652173913043478,0.5,0.181818181818182,1114.2,0.7,31.3,NA,"data"
"260",833,"regret_late",1,20,38,1083,NA,NA,NA,NA,NA,NA,NA,NA,NA,68.6470588235294,30,0,3,"noregret",2,1,40,19,NA,0.5,0.7,0.2,2,1,3,"worst",0,NA,0.652173913043478,0.5,0.181818181818182,1114.2,0.2,31.3,0.7,"data"
"261",833,"regret_late",0,20,39,2050,NA,NA,NA,NA,NA,NA,NA,NA,NA,68.6470588235294,30,0,1,"noregret",3,1,40,20,NA,0.5,0.7,0.2,2,1,3,"medium",0,NA,0.652173913043478,0.5,0.181818181818182,1114.2,0.5,31.3,0.2,"data"
"262",833,"regret_late",0,20,NA,4553,NA,NA,NA,NA,NA,NA,NA,NA,"39",68.6470588235294,30,0,NA,"regret",1,0,40,20,NA,NA,NA,NA,2,NA,NA,NA,NA,NA,0.652173913043478,0.5,0.181818181818182,1114.2,NA,31.3,0.5,"data"
"263",833,"regret_late",1,21,40,889,NA,NA,NA,NA,NA,NA,NA,NA,NA,68.6470588235294,30,1,1,"noregret",1,0,40,20,"39",0.5,0.7,0.2,2,1,3,"medium",0,NA,0.652173913043478,0.5,0.181818181818182,1114.2,0.5,31.3,NA,"data"
"264",833,"regret_late",1,22,41,1676,NA,NA,NA,NA,NA,NA,NA,NA,NA,68.6470588235294,30,0,2,"noregret",1,1,40,21,NA,0.5,0.7,0.2,2,1,3,"best",1,NA,0.652173913043478,0.5,0.181818181818182,1114.2,0.7,31.3,0.5,"data"
"265",833,"regret_late",0,22,42,776,NA,NA,NA,NA,NA,NA,NA,NA,NA,68.6470588235294,30,0,3,"noregret",2,1,40,22,NA,0.5,0.7,0.2,2,1,3,"worst",0,NA,0.652173913043478,0.5,0.181818181818182,1114.2,0.2,31.3,0.7,"data"
"266",833,"regret_late",0,22,NA,6290,NA,NA,NA,NA,NA,NA,NA,NA,"68",68.6470588235294,30,0,NA,"regret",3,0,40,22,NA,NA,NA,NA,2,NA,NA,NA,NA,NA,0.652173913043478,0.5,0.181818181818182,1114.2,NA,31.3,0.2,"data"
"267",833,"regret_late",0,22,43,1101,NA,NA,NA,NA,NA,NA,NA,NA,NA,68.6470588235294,30,1,3,"noregret",3,0,40,22,"68",0.5,0.7,0.2,2,1,3,"worst",0,NA,0.652173913043478,0.5,0.181818181818182,1114.2,0.2,31.3,NA,"data"
"268",833,"regret_late",0,22,NA,3538,NA,NA,NA,NA,NA,NA,NA,NA,"100",68.6470588235294,30,0,NA,"regret",3,0,40,22,NA,NA,NA,NA,2,NA,NA,NA,NA,NA,0.652173913043478,0.5,0.181818181818182,1114.2,NA,31.3,0.2,"data"
"269",833,"regret_late",0,22,44,878,NA,NA,NA,NA,NA,NA,NA,NA,NA,68.6470588235294,30,1,3,"noregret",3,0,40,22,"100",0.5,0.7,0.2,2,1,3,"worst",0,NA,0.652173913043478,0.5,0.181818181818182,1114.2,0.2,31.3,NA,"data"
"270",833,"regret_late",0,22,NA,2637,NA,NA,NA,NA,NA,NA,NA,NA,"100",68.6470588235294,30,0,NA,"regret",3,0,40,22,NA,NA,NA,NA,2,NA,NA,NA,NA,NA,0.652173913043478,0.5,0.181818181818182,1114.2,NA,31.3,0.2,"data"
"271",833,"regret_late",0,22,45,960,NA,NA,NA,NA,NA,NA,NA,NA,NA,68.6470588235294,30,1,2,"noregret",3,1,40,22,"100",0.5,0.7,0.2,2,1,3,"best",1,NA,0.652173913043478,0.5,0.181818181818182,1114.2,0.7,31.3,NA,"data"
"272",833,"regret_late",0,22,NA,5937,NA,NA,NA,NA,NA,NA,NA,NA,"36",68.6470588235294,30,0,NA,"regret",2,0,40,22,NA,NA,NA,NA,2,NA,NA,NA,NA,NA,0.652173913043478,0.5,0.181818181818182,1114.2,NA,31.3,0.7,"data"
"273",833,"regret_late",0,22,46,980,NA,NA,NA,NA,NA,NA,NA,NA,NA,68.6470588235294,30,1,2,"noregret",2,0,40,22,"36",0.5,0.7,0.2,2,1,3,"best",1,NA,0.652173913043478,0.5,0.181818181818182,1114.2,0.7,31.3,NA,"data"
"274",833,"regret_late",0,22,NA,3725,NA,NA,NA,NA,NA,NA,NA,NA,"53",68.6470588235294,30,0,NA,"regret",2,0,40,22,NA,NA,NA,NA,2,NA,NA,NA,NA,NA,0.652173913043478,0.5,0.181818181818182,1114.2,NA,31.3,0.7,"data"
"275",833,"regret_late",1,23,47,594,NA,NA,NA,NA,NA,NA,NA,NA,NA,68.6470588235294,30,1,1,"noregret",2,1,40,22,"53",0.5,0.7,0.2,2,1,3,"medium",0,NA,0.652173913043478,0.5,0.181818181818182,1114.2,0.5,31.3,NA,"data"
"276",833,"regret_late",1,24,48,774,NA,NA,NA,NA,NA,NA,NA,NA,NA,68.6470588235294,30,0,1,"noregret",1,0,40,23,NA,0.5,0.7,0.2,2,1,3,"medium",0,NA,0.652173913043478,0.5,0.181818181818182,1114.2,0.5,31.3,0.5,"data"
"277",833,"regret_late",0,24,49,982,NA,NA,NA,NA,NA,NA,NA,NA,NA,68.6470588235294,30,0,1,"noregret",1,0,40,24,NA,0.5,0.7,0.2,2,1,3,"medium",0,NA,0.652173913043478,0.5,0.181818181818182,1114.2,0.5,31.3,0.5,"data"
"278",833,"regret_late",0,24,NA,4655,NA,NA,NA,NA,NA,NA,NA,NA,"5",68.6470588235294,30,0,NA,"regret",1,0,40,24,NA,NA,NA,NA,2,NA,NA,NA,NA,NA,0.652173913043478,0.5,0.181818181818182,1114.2,NA,31.3,0.5,"data"
"279",833,"regret_late",1,25,50,1372,NA,NA,NA,NA,NA,NA,NA,NA,NA,68.6470588235294,30,1,2,"noregret",1,1,40,24,"5",0.5,0.7,0.2,2,1,3,"best",1,NA,0.652173913043478,0.5,0.181818181818182,1114.2,0.7,31.3,NA,"data"
"280",833,"regret_late",1,26,51,1916,NA,NA,NA,NA,NA,NA,NA,NA,NA,68.6470588235294,30,0,2,"noregret",2,0,40,25,NA,0.5,0.7,0.2,2,1,3,"best",1,NA,0.652173913043478,0.5,0.181818181818182,1114.2,0.7,31.3,0.7,"data"
"281",833,"regret_late",0,26,52,2983,NA,NA,NA,NA,NA,NA,NA,NA,NA,68.6470588235294,30,0,3,"noregret",2,1,40,26,NA,0.5,0.7,0.2,2,1,3,"worst",0,NA,0.652173913043478,0.5,0.181818181818182,1114.2,0.2,31.3,0.7,"data"
"282",833,"regret_late",0,26,NA,8481,NA,NA,NA,NA,NA,NA,NA,NA,"35",68.6470588235294,30,0,NA,"regret",3,0,40,26,NA,NA,NA,NA,2,NA,NA,NA,NA,NA,0.652173913043478,0.5,0.181818181818182,1114.2,NA,31.3,0.2,"data"
"283",833,"regret_late",1,27,53,1204,NA,NA,NA,NA,NA,NA,NA,NA,NA,68.6470588235294,30,1,1,"noregret",3,1,40,26,"35",0.5,0.7,0.2,2,1,3,"medium",0,NA,0.652173913043478,0.5,0.181818181818182,1114.2,0.5,31.3,NA,"data"
"284",833,"regret_late",0,27,54,1450,NA,NA,NA,NA,NA,NA,NA,NA,NA,68.6470588235294,30,0,1,"noregret",1,0,40,27,NA,0.5,0.7,0.2,2,1,3,"medium",0,NA,0.652173913043478,0.5,0.181818181818182,1114.2,0.5,31.3,0.5,"data"
"285",833,"regret_late",0,27,NA,6010,NA,NA,NA,NA,NA,NA,NA,NA,"32",68.6470588235294,30,0,NA,"regret",1,0,40,27,NA,NA,NA,NA,2,NA,NA,NA,NA,NA,0.652173913043478,0.5,0.181818181818182,1114.2,NA,31.3,0.5,"data"
"286",833,"regret_late",1,28,55,1748,NA,NA,NA,NA,NA,NA,NA,NA,NA,68.6470588235294,30,1,2,"noregret",1,1,40,27,"32",0.5,0.7,0.2,2,1,3,"best",1,NA,0.652173913043478,0.5,0.181818181818182,1114.2,0.7,31.3,NA,"data"
"287",833,"regret_late",1,29,56,1203,NA,NA,NA,NA,NA,NA,NA,NA,NA,68.6470588235294,30,0,1,"noregret",2,1,40,28,NA,0.5,0.7,0.2,2,1,3,"medium",0,NA,0.652173913043478,0.5,0.181818181818182,1114.2,0.5,31.3,0.7,"data"
"288",833,"regret_late",1,30,57,1060,NA,NA,NA,NA,NA,NA,NA,NA,NA,68.6470588235294,30,0,2,"noregret",1,1,40,29,NA,0.5,0.7,0.2,2,1,3,"best",1,NA,0.652173913043478,0.5,0.181818181818182,1114.2,0.7,31.3,0.5,"data"
"289",833,"regret_late",0,30,58,1047,NA,NA,NA,NA,NA,NA,NA,NA,NA,68.6470588235294,30,0,3,"noregret",2,1,40,30,NA,0.5,0.7,0.2,2,1,3,"worst",0,NA,0.652173913043478,0.5,0.181818181818182,1114.2,0.2,31.3,0.7,"data"
"290",833,"regret_late",0,30,NA,3287,NA,NA,NA,NA,NA,NA,NA,NA,"100",68.6470588235294,30,0,NA,"regret",3,0,40,30,NA,NA,NA,NA,2,NA,NA,NA,NA,NA,0.652173913043478,0.5,0.181818181818182,1114.2,NA,31.3,0.2,"data"
"291",833,"regret_late",0,30,59,1176,NA,NA,NA,NA,NA,NA,NA,NA,NA,68.6470588235294,30,1,2,"noregret",3,1,40,30,"100",0.5,0.7,0.2,2,1,3,"best",1,NA,0.652173913043478,0.5,0.181818181818182,1114.2,0.7,31.3,NA,"data"
"292",833,"regret_late",0,30,NA,3395,NA,NA,NA,NA,NA,NA,NA,NA,"100",68.6470588235294,30,0,NA,"regret",2,0,40,30,NA,NA,NA,NA,2,NA,NA,NA,NA,NA,0.652173913043478,0.5,0.181818181818182,1114.2,NA,31.3,0.7,"data"
"293",833,"regret_late",0,30,60,787,NA,NA,NA,NA,NA,NA,NA,NA,NA,68.6470588235294,30,1,1,"noregret",2,1,40,30,"100",0.5,0.7,0.2,2,1,3,"medium",0,NA,0.652173913043478,0.5,0.181818181818182,1114.2,0.5,31.3,NA,"data"
"294",833,"regret_late",0,30,NA,2445,NA,NA,NA,NA,NA,NA,NA,NA,"99",68.6470588235294,30,0,NA,"regret",1,0,40,30,NA,NA,NA,NA,2,NA,NA,NA,NA,NA,0.652173913043478,0.5,0.181818181818182,1114.2,NA,31.3,0.5,"data"
"295",833,"regret_late",0,30,61,96251,"33","Black/African American","Female","Non-Hispanic",NA,3,3,75,NA,68.6470588235294,30,1,NA,"noregret",1,0,40,30,"99",NA,NA,NA,2,NA,NA,NA,NA,0,0.652173913043478,0.5,0.181818181818182,1114.2,NA,31.3,NA,"data"
"296",841,"regret_late",1,1,1,4093,NA,NA,NA,NA,NA,NA,NA,NA,NA,18.6666666666667,37,0,1,"noregret",NA,0,37,NA,NA,0.5,0.7,0.2,2,1,3,"medium",0,NA,0.666666666666667,0.636363636363636,0,1829.63333333333,0.5,33.9,NA,"data"
"297",841,"regret_late",0,1,2,4084,NA,NA,NA,NA,NA,NA,NA,NA,NA,18.6666666666667,37,0,1,"noregret",1,0,37,1,NA,0.5,0.7,0.2,2,1,3,"medium",0,NA,0.666666666666667,0.636363636363636,0,1829.63333333333,0.5,33.9,0.5,"data"
"298",841,"regret_late",1,2,3,2388,NA,NA,NA,NA,NA,NA,NA,NA,NA,18.6666666666667,37,0,2,"noregret",1,1,37,1,NA,0.5,0.7,0.2,2,1,3,"best",1,NA,0.666666666666667,0.636363636363636,0,1829.63333333333,0.7,33.9,0.5,"data"
"299",841,"regret_late",0,2,4,2549,NA,NA,NA,NA,NA,NA,NA,NA,NA,18.6666666666667,37,0,3,"noregret",2,1,37,2,NA,0.5,0.7,0.2,2,1,3,"worst",0,NA,0.666666666666667,0.636363636363636,0,1829.63333333333,0.2,33.9,0.7,"data"
"300",841,"regret_late",0,2,5,1930,NA,NA,NA,NA,NA,NA,NA,NA,NA,18.6666666666667,37,0,2,"noregret",3,1,37,2,NA,0.5,0.7,0.2,2,1,3,"best",1,NA,0.666666666666667,0.636363636363636,0,1829.63333333333,0.7,33.9,0.2,"data"
"301",841,"regret_late",1,3,6,1468,NA,NA,NA,NA,NA,NA,NA,NA,NA,18.6666666666667,37,0,1,"noregret",2,1,37,2,NA,0.5,0.7,0.2,2,1,3,"medium",0,NA,0.666666666666667,0.636363636363636,0,1829.63333333333,0.5,33.9,0.7,"data"
"302",841,"regret_late",0,3,7,2952,NA,NA,NA,NA,NA,NA,NA,NA,NA,18.6666666666667,37,0,2,"noregret",1,1,37,3,NA,0.5,0.7,0.2,2,1,3,"best",1,NA,0.666666666666667,0.636363636363636,0,1829.63333333333,0.7,33.9,0.5,"data"
"303",841,"regret_late",0,3,8,1188,NA,NA,NA,NA,NA,NA,NA,NA,NA,18.6666666666667,37,0,1,"noregret",2,1,37,3,NA,0.5,0.7,0.2,2,1,3,"medium",0,NA,0.666666666666667,0.636363636363636,0,1829.63333333333,0.5,33.9,0.7,"data"
"304",841,"regret_late",0,3,9,1212,NA,NA,NA,NA,NA,NA,NA,NA,NA,18.6666666666667,37,0,3,"noregret",1,1,37,3,NA,0.5,0.7,0.2,2,1,3,"worst",0,NA,0.666666666666667,0.636363636363636,0,1829.63333333333,0.2,33.9,0.5,"data"
"305",841,"regret_late",1,4,10,1092,NA,NA,NA,NA,NA,NA,NA,NA,NA,18.6666666666667,37,0,1,"noregret",3,1,37,3,NA,0.5,0.7,0.2,2,1,3,"medium",0,NA,0.666666666666667,0.636363636363636,0,1829.63333333333,0.5,33.9,0.2,"data"
"306",841,"regret_late",1,5,11,2232,NA,NA,NA,NA,NA,NA,NA,NA,NA,18.6666666666667,37,0,2,"noregret",1,1,37,4,NA,0.5,0.7,0.2,2,1,3,"best",1,NA,0.666666666666667,0.636363636363636,0,1829.63333333333,0.7,33.9,0.5,"data"
"307",841,"regret_late",0,5,12,1595,NA,NA,NA,NA,NA,NA,NA,NA,NA,18.6666666666667,37,0,1,"noregret",2,1,37,5,NA,0.5,0.7,0.2,2,1,3,"medium",0,NA,0.666666666666667,0.636363636363636,0,1829.63333333333,0.5,33.9,0.7,"data"
"308",841,"regret_late",0,5,13,1082,NA,NA,NA,NA,NA,NA,NA,NA,NA,18.6666666666667,37,0,2,"noregret",1,1,37,5,NA,0.5,0.7,0.2,2,1,3,"best",1,NA,0.666666666666667,0.636363636363636,0,1829.63333333333,0.7,33.9,0.5,"data"
"309",841,"regret_late",1,6,14,898,NA,NA,NA,NA,NA,NA,NA,NA,NA,18.6666666666667,37,0,1,"noregret",2,1,37,5,NA,0.5,0.7,0.2,2,1,3,"medium",0,NA,0.666666666666667,0.636363636363636,0,1829.63333333333,0.5,33.9,0.7,"data"
"310",841,"regret_late",1,7,15,2257,NA,NA,NA,NA,NA,NA,NA,NA,NA,18.6666666666667,37,0,1,"noregret",1,0,37,6,NA,0.5,0.7,0.2,2,1,3,"medium",0,NA,0.666666666666667,0.636363636363636,0,1829.63333333333,0.5,33.9,0.5,"data"
"311",841,"regret_late",1,8,16,1654,NA,NA,NA,NA,NA,NA,NA,NA,NA,18.6666666666667,37,0,2,"noregret",1,1,37,7,NA,0.5,0.7,0.2,2,1,3,"best",1,NA,0.666666666666667,0.636363636363636,0,1829.63333333333,0.7,33.9,0.5,"data"
"312",841,"regret_late",1,9,17,1838,NA,NA,NA,NA,NA,NA,NA,NA,NA,18.6666666666667,37,0,1,"noregret",2,1,37,8,NA,0.5,0.7,0.2,2,1,3,"medium",0,NA,0.666666666666667,0.636363636363636,0,1829.63333333333,0.5,33.9,0.7,"data"
"313",841,"regret_late",0,9,18,1456,NA,NA,NA,NA,NA,NA,NA,NA,NA,18.6666666666667,37,0,2,"noregret",1,1,37,9,NA,0.5,0.7,0.2,2,1,3,"best",1,NA,0.666666666666667,0.636363636363636,0,1829.63333333333,0.7,33.9,0.5,"data"
"314",841,"regret_late",0,9,19,1062,NA,NA,NA,NA,NA,NA,NA,NA,NA,18.6666666666667,37,0,1,"noregret",2,1,37,9,NA,0.5,0.7,0.2,2,1,3,"medium",0,NA,0.666666666666667,0.636363636363636,0,1829.63333333333,0.5,33.9,0.7,"data"
"315",841,"regret_late",1,10,20,684,NA,NA,NA,NA,NA,NA,NA,NA,NA,18.6666666666667,37,0,1,"noregret",1,0,37,9,NA,0.5,0.7,0.2,2,1,3,"medium",0,NA,0.666666666666667,0.636363636363636,0,1829.63333333333,0.5,33.9,0.5,"data"
"316",841,"regret_late",1,11,21,1997,NA,NA,NA,NA,NA,NA,NA,NA,NA,18.6666666666667,37,0,1,"noregret",1,0,37,10,NA,0.5,0.7,0.2,2,1,3,"medium",0,NA,0.666666666666667,0.636363636363636,0,1829.63333333333,0.5,33.9,0.5,"data"
"317",841,"regret_late",1,12,22,1390,NA,NA,NA,NA,NA,NA,NA,NA,NA,18.6666666666667,37,0,2,"noregret",1,1,37,11,NA,0.5,0.7,0.2,2,1,3,"best",1,NA,0.666666666666667,0.636363636363636,0,1829.63333333333,0.7,33.9,0.5,"data"
"318",841,"regret_late",1,13,23,1805,NA,NA,NA,NA,NA,NA,NA,NA,NA,18.6666666666667,37,0,2,"noregret",2,0,37,12,NA,0.5,0.7,0.2,2,1,3,"best",1,NA,0.666666666666667,0.636363636363636,0,1829.63333333333,0.7,33.9,0.7,"data"
"319",841,"regret_late",0,13,24,4447,NA,NA,NA,NA,NA,NA,NA,NA,NA,18.6666666666667,37,0,3,"noregret",2,1,37,13,NA,0.5,0.7,0.2,2,1,3,"worst",0,NA,0.666666666666667,0.636363636363636,0,1829.63333333333,0.2,33.9,0.7,"data"
"320",841,"regret_late",1,14,25,1891,NA,NA,NA,NA,NA,NA,NA,NA,NA,18.6666666666667,37,0,1,"noregret",3,1,37,13,NA,0.5,0.7,0.2,2,1,3,"medium",0,NA,0.666666666666667,0.636363636363636,0,1829.63333333333,0.5,33.9,0.2,"data"
"321",841,"regret_late",0,14,26,1577,NA,NA,NA,NA,NA,NA,NA,NA,NA,18.6666666666667,37,0,1,"noregret",1,0,37,14,NA,0.5,0.7,0.2,2,1,3,"medium",0,NA,0.666666666666667,0.636363636363636,0,1829.63333333333,0.5,33.9,0.5,"data"
"322",841,"regret_late",0,14,27,1204,NA,NA,NA,NA,NA,NA,NA,NA,NA,18.6666666666667,37,0,2,"noregret",1,1,37,14,NA,0.5,0.7,0.2,2,1,3,"best",1,NA,0.666666666666667,0.636363636363636,0,1829.63333333333,0.7,33.9,0.5,"data"
"323",841,"regret_late",0,14,28,981,NA,NA,NA,NA,NA,NA,NA,NA,NA,18.6666666666667,37,0,2,"noregret",2,0,37,14,NA,0.5,0.7,0.2,2,1,3,"best",1,NA,0.666666666666667,0.636363636363636,0,1829.63333333333,0.7,33.9,0.7,"data"
"324",841,"regret_late",1,15,29,920,NA,NA,NA,NA,NA,NA,NA,NA,NA,18.6666666666667,37,0,1,"noregret",2,1,37,14,NA,0.5,0.7,0.2,2,1,3,"medium",0,NA,0.666666666666667,0.636363636363636,0,1829.63333333333,0.5,33.9,0.7,"data"
"325",841,"regret_late",1,16,30,1260,NA,NA,NA,NA,NA,NA,NA,NA,NA,18.6666666666667,37,0,2,"noregret",1,1,37,15,NA,0.5,0.7,0.2,2,1,3,"best",1,NA,0.666666666666667,0.636363636363636,0,1829.63333333333,0.7,33.9,0.5,"data"
"326",841,"regret_late",0,16,31,5951,NA,NA,NA,NA,NA,NA,NA,NA,NA,18.6666666666667,37,0,1,"noregret",2,1,37,16,NA,0.5,0.7,0.2,2,1,3,"medium",0,NA,0.666666666666667,0.636363636363636,0,1829.63333333333,0.5,33.9,0.7,"data"
"327",841,"regret_late",0,16,NA,10099,NA,NA,NA,NA,NA,NA,NA,NA,"10",18.6666666666667,37,0,NA,"regret",1,0,37,16,NA,NA,NA,NA,2,NA,NA,NA,NA,NA,0.666666666666667,0.636363636363636,0,1829.63333333333,NA,33.9,0.5,"data"
"328",841,"regret_late",0,16,32,2470,NA,NA,NA,NA,NA,NA,NA,NA,NA,18.6666666666667,37,1,1,"noregret",1,0,37,16,"10",0.5,0.7,0.2,2,1,3,"medium",0,NA,0.666666666666667,0.636363636363636,0,1829.63333333333,0.5,33.9,NA,"data"
"329",841,"regret_late",0,16,NA,5688,NA,NA,NA,NA,NA,NA,NA,NA,"10",18.6666666666667,37,0,NA,"regret",1,0,37,16,NA,NA,NA,NA,2,NA,NA,NA,NA,NA,0.666666666666667,0.636363636363636,0,1829.63333333333,NA,33.9,0.5,"data"
"330",841,"regret_late",1,17,33,1227,NA,NA,NA,NA,NA,NA,NA,NA,NA,18.6666666666667,37,1,1,"noregret",1,0,37,16,"10",0.5,0.7,0.2,2,1,3,"medium",0,NA,0.666666666666667,0.636363636363636,0,1829.63333333333,0.5,33.9,NA,"data"
"331",841,"regret_late",1,18,34,3642,NA,NA,NA,NA,NA,NA,NA,NA,NA,18.6666666666667,37,0,2,"noregret",1,1,37,17,NA,0.5,0.7,0.2,2,1,3,"best",1,NA,0.666666666666667,0.636363636363636,0,1829.63333333333,0.7,33.9,0.5,"data"
"332",841,"regret_late",1,19,35,1872,NA,NA,NA,NA,NA,NA,NA,NA,NA,18.6666666666667,37,0,2,"noregret",2,0,37,18,NA,0.5,0.7,0.2,2,1,3,"best",1,NA,0.666666666666667,0.636363636363636,0,1829.63333333333,0.7,33.9,0.7,"data"
"333",841,"regret_late",1,20,36,1859,NA,NA,NA,NA,NA,NA,NA,NA,NA,18.6666666666667,37,0,1,"noregret",2,1,37,19,NA,0.5,0.7,0.2,2,1,3,"medium",0,NA,0.666666666666667,0.636363636363636,0,1829.63333333333,0.5,33.9,0.7,"data"
"334",841,"regret_late",1,21,37,3425,NA,NA,NA,NA,NA,NA,NA,NA,NA,18.6666666666667,37,0,2,"noregret",1,1,37,20,NA,0.5,0.7,0.2,2,1,3,"best",1,NA,0.666666666666667,0.636363636363636,0,1829.63333333333,0.7,33.9,0.5,"data"
"335",841,"regret_late",1,22,38,3304,NA,NA,NA,NA,NA,NA,NA,NA,NA,18.6666666666667,37,0,1,"noregret",2,1,37,21,NA,0.5,0.7,0.2,2,1,3,"medium",0,NA,0.666666666666667,0.636363636363636,0,1829.63333333333,0.5,33.9,0.7,"data"
"336",841,"regret_late",0,22,39,2155,NA,NA,NA,NA,NA,NA,NA,NA,NA,18.6666666666667,37,0,1,"noregret",1,0,37,22,NA,0.5,0.7,0.2,2,1,3,"medium",0,NA,0.666666666666667,0.636363636363636,0,1829.63333333333,0.5,33.9,0.5,"data"
"337",841,"regret_late",0,22,NA,5618,NA,NA,NA,NA,NA,NA,NA,NA,"10",18.6666666666667,37,0,NA,"regret",1,0,37,22,NA,NA,NA,NA,2,NA,NA,NA,NA,NA,0.666666666666667,0.636363636363636,0,1829.63333333333,NA,33.9,0.5,"data"
"338",841,"regret_late",1,23,40,1158,NA,NA,NA,NA,NA,NA,NA,NA,NA,18.6666666666667,37,1,1,"noregret",1,0,37,22,"10",0.5,0.7,0.2,2,1,3,"medium",0,NA,0.666666666666667,0.636363636363636,0,1829.63333333333,0.5,33.9,NA,"data"
"339",841,"regret_late",0,23,41,1331,NA,NA,NA,NA,NA,NA,NA,NA,NA,18.6666666666667,37,0,2,"noregret",1,1,37,23,NA,0.5,0.7,0.2,2,1,3,"best",1,NA,0.666666666666667,0.636363636363636,0,1829.63333333333,0.7,33.9,0.5,"data"
"340",841,"regret_late",0,23,NA,4887,NA,NA,NA,NA,NA,NA,NA,NA,"36",18.6666666666667,37,0,NA,"regret",2,0,37,23,NA,NA,NA,NA,2,NA,NA,NA,NA,NA,0.666666666666667,0.636363636363636,0,1829.63333333333,NA,33.9,0.7,"data"
"341",841,"regret_late",0,23,42,1279,NA,NA,NA,NA,NA,NA,NA,NA,NA,18.6666666666667,37,1,2,"noregret",2,0,37,23,"36",0.5,0.7,0.2,2,1,3,"best",1,NA,0.666666666666667,0.636363636363636,0,1829.63333333333,0.7,33.9,NA,"data"
"342",841,"regret_late",0,23,NA,4586,NA,NA,NA,NA,NA,NA,NA,NA,"30",18.6666666666667,37,0,NA,"regret",2,0,37,23,NA,NA,NA,NA,2,NA,NA,NA,NA,NA,0.666666666666667,0.636363636363636,0,1829.63333333333,NA,33.9,0.7,"data"
"343",841,"regret_late",0,23,43,974,NA,NA,NA,NA,NA,NA,NA,NA,NA,18.6666666666667,37,1,1,"noregret",2,1,37,23,"30",0.5,0.7,0.2,2,1,3,"medium",0,NA,0.666666666666667,0.636363636363636,0,1829.63333333333,0.5,33.9,NA,"data"
"344",841,"regret_late",0,23,NA,7727,NA,NA,NA,NA,NA,NA,NA,NA,"22",18.6666666666667,37,0,NA,"regret",1,0,37,23,NA,NA,NA,NA,2,NA,NA,NA,NA,NA,0.666666666666667,0.636363636363636,0,1829.63333333333,NA,33.9,0.5,"data"
"345",841,"regret_late",1,24,44,805,NA,NA,NA,NA,NA,NA,NA,NA,NA,18.6666666666667,37,1,1,"noregret",1,0,37,23,"22",0.5,0.7,0.2,2,1,3,"medium",0,NA,0.666666666666667,0.636363636363636,0,1829.63333333333,0.5,33.9,NA,"data"
"346",841,"regret_late",1,25,45,1892,NA,NA,NA,NA,NA,NA,NA,NA,NA,18.6666666666667,37,0,1,"noregret",1,0,37,24,NA,0.5,0.7,0.2,2,1,3,"medium",0,NA,0.666666666666667,0.636363636363636,0,1829.63333333333,0.5,33.9,0.5,"data"
"347",841,"regret_late",1,26,46,1434,NA,NA,NA,NA,NA,NA,NA,NA,NA,18.6666666666667,37,0,2,"noregret",1,1,37,25,NA,0.5,0.7,0.2,2,1,3,"best",1,NA,0.666666666666667,0.636363636363636,0,1829.63333333333,0.7,33.9,0.5,"data"
"348",841,"regret_late",1,27,47,2181,NA,NA,NA,NA,NA,NA,NA,NA,NA,18.6666666666667,37,0,1,"noregret",2,1,37,26,NA,0.5,0.7,0.2,2,1,3,"medium",0,NA,0.666666666666667,0.636363636363636,0,1829.63333333333,0.5,33.9,0.7,"data"
"349",841,"regret_late",1,28,48,2235,NA,NA,NA,NA,NA,NA,NA,NA,NA,18.6666666666667,37,0,2,"noregret",1,1,37,27,NA,0.5,0.7,0.2,2,1,3,"best",1,NA,0.666666666666667,0.636363636363636,0,1829.63333333333,0.7,33.9,0.5,"data"
"350",841,"regret_late",1,29,49,1534,NA,NA,NA,NA,NA,NA,NA,NA,NA,18.6666666666667,37,0,2,"noregret",2,0,37,28,NA,0.5,0.7,0.2,2,1,3,"best",1,NA,0.666666666666667,0.636363636363636,0,1829.63333333333,0.7,33.9,0.7,"data"
"351",841,"regret_late",0,29,50,1251,NA,NA,NA,NA,NA,NA,NA,NA,NA,18.6666666666667,37,0,1,"noregret",2,1,37,29,NA,0.5,0.7,0.2,2,1,3,"medium",0,NA,0.666666666666667,0.636363636363636,0,1829.63333333333,0.5,33.9,0.7,"data"
"352",841,"regret_late",0,29,NA,4529,NA,NA,NA,NA,NA,NA,NA,NA,"13",18.6666666666667,37,0,NA,"regret",1,0,37,29,NA,NA,NA,NA,2,NA,NA,NA,NA,NA,0.666666666666667,0.636363636363636,0,1829.63333333333,NA,33.9,0.5,"data"
"353",841,"regret_late",0,29,51,995,NA,NA,NA,NA,NA,NA,NA,NA,NA,18.6666666666667,37,1,1,"noregret",1,0,37,29,"13",0.5,0.7,0.2,2,1,3,"medium",0,NA,0.666666666666667,0.636363636363636,0,1829.63333333333,0.5,33.9,NA,"data"
"354",841,"regret_late",0,29,NA,4972,NA,NA,NA,NA,NA,NA,NA,NA,"22",18.6666666666667,37,0,NA,"regret",1,0,37,29,NA,NA,NA,NA,2,NA,NA,NA,NA,NA,0.666666666666667,0.636363636363636,0,1829.63333333333,NA,33.9,0.5,"data"
"355",841,"regret_late",1,30,52,862,NA,NA,NA,NA,NA,NA,NA,NA,NA,18.6666666666667,37,1,1,"noregret",1,0,37,29,"22",0.5,0.7,0.2,2,1,3,"medium",0,NA,0.666666666666667,0.636363636363636,0,1829.63333333333,0.5,33.9,NA,"data"
"356",841,"regret_late",1,31,53,1279,NA,NA,NA,NA,NA,NA,NA,NA,NA,18.6666666666667,37,0,2,"noregret",1,1,37,30,NA,0.5,0.7,0.2,2,1,3,"best",1,NA,0.666666666666667,0.636363636363636,0,1829.63333333333,0.7,33.9,0.5,"data"
"357",841,"regret_late",1,32,54,1164,NA,NA,NA,NA,NA,NA,NA,NA,NA,18.6666666666667,37,0,2,"noregret",2,0,37,31,NA,0.5,0.7,0.2,2,1,3,"best",1,NA,0.666666666666667,0.636363636363636,0,1829.63333333333,0.7,33.9,0.7,"data"
"358",841,"regret_late",1,33,55,1271,NA,NA,NA,NA,NA,NA,NA,NA,NA,18.6666666666667,37,0,2,"noregret",2,0,37,32,NA,0.5,0.7,0.2,2,1,3,"best",1,NA,0.666666666666667,0.636363636363636,0,1829.63333333333,0.7,33.9,0.7,"data"
"359",841,"regret_late",1,34,56,1218,NA,NA,NA,NA,NA,NA,NA,NA,NA,18.6666666666667,37,0,1,"noregret",2,1,37,33,NA,0.5,0.7,0.2,2,1,3,"medium",0,NA,0.666666666666667,0.636363636363636,0,1829.63333333333,0.5,33.9,0.7,"data"
"360",841,"regret_late",1,35,57,1308,NA,NA,NA,NA,NA,NA,NA,NA,NA,18.6666666666667,37,0,1,"noregret",1,0,37,34,NA,0.5,0.7,0.2,2,1,3,"medium",0,NA,0.666666666666667,0.636363636363636,0,1829.63333333333,0.5,33.9,0.5,"data"
"361",841,"regret_late",1,36,58,1156,NA,NA,NA,NA,NA,NA,NA,NA,NA,18.6666666666667,37,0,2,"noregret",1,1,37,35,NA,0.5,0.7,0.2,2,1,3,"best",1,NA,0.666666666666667,0.636363636363636,0,1829.63333333333,0.7,33.9,0.5,"data"
"362",841,"regret_late",0,36,59,2434,NA,NA,NA,NA,NA,NA,NA,NA,NA,18.6666666666667,37,0,1,"noregret",2,1,37,36,NA,0.5,0.7,0.2,2,1,3,"medium",0,NA,0.666666666666667,0.636363636363636,0,1829.63333333333,0.5,33.9,0.7,"data"
"363",841,"regret_late",0,36,NA,4123,NA,NA,NA,NA,NA,NA,NA,NA,"15",18.6666666666667,37,0,NA,"regret",1,0,37,36,NA,NA,NA,NA,2,NA,NA,NA,NA,NA,0.666666666666667,0.636363636363636,0,1829.63333333333,NA,33.9,0.5,"data"
"364",841,"regret_late",1,37,60,926,NA,NA,NA,NA,NA,NA,NA,NA,NA,18.6666666666667,37,1,1,"noregret",1,0,37,36,"15",0.5,0.7,0.2,2,1,3,"medium",0,NA,0.666666666666667,0.636363636363636,0,1829.63333333333,0.5,33.9,NA,"data"
"365",841,"regret_late",0,37,61,74200,"43","Black/African American","Female","Non-Hispanic","The tree to the left and middle tree produced the best apples and it appeared to be a pattern I thought.",3,3,75,NA,18.6666666666667,37,0,NA,"noregret",1,0,37,37,NA,NA,NA,NA,2,NA,NA,NA,NA,0,0.666666666666667,0.636363636363636,0,1829.63333333333,NA,33.9,0.5,"data"
"366",806,"regret_late",1,1,1,1443,NA,NA,NA,NA,NA,NA,NA,NA,NA,47.5555555555556,36,0,2,"noregret",NA,0,40,NA,NA,0.5,0.2,0.7,3,1,2,"worst",0,NA,0.757575757575758,0.6,0.166666666666667,1151.15,0.2,33,NA,"data"
"367",806,"regret_late",0,1,2,2593,NA,NA,NA,NA,NA,NA,NA,NA,NA,47.5555555555556,36,0,2,"noregret",2,0,40,1,NA,0.5,0.2,0.7,3,1,2,"worst",0,NA,0.757575757575758,0.6,0.166666666666667,1151.15,0.2,33,0.2,"data"
"368",806,"regret_late",0,1,3,1097,NA,NA,NA,NA,NA,NA,NA,NA,NA,47.5555555555556,36,0,3,"noregret",2,1,40,1,NA,0.5,0.2,0.7,3,1,2,"best",1,NA,0.757575757575758,0.6,0.166666666666667,1151.15,0.7,33,0.2,"data"
"369",806,"regret_late",1,2,4,1013,NA,NA,NA,NA,NA,NA,NA,NA,NA,47.5555555555556,36,0,1,"noregret",3,1,40,1,NA,0.5,0.2,0.7,3,1,2,"medium",0,NA,0.757575757575758,0.6,0.166666666666667,1151.15,0.5,33,0.7,"data"
"370",806,"regret_late",0,2,5,777,NA,NA,NA,NA,NA,NA,NA,NA,NA,47.5555555555556,36,0,2,"noregret",1,1,40,2,NA,0.5,0.2,0.7,3,1,2,"worst",0,NA,0.757575757575758,0.6,0.166666666666667,1151.15,0.2,33,0.5,"data"
"371",806,"regret_late",0,2,6,717,NA,NA,NA,NA,NA,NA,NA,NA,NA,47.5555555555556,36,0,1,"noregret",2,1,40,2,NA,0.5,0.2,0.7,3,1,2,"medium",0,NA,0.757575757575758,0.6,0.166666666666667,1151.15,0.5,33,0.2,"data"
"372",806,"regret_late",1,3,7,1977,NA,NA,NA,NA,NA,NA,NA,NA,NA,47.5555555555556,36,0,3,"noregret",1,1,40,2,NA,0.5,0.2,0.7,3,1,2,"best",1,NA,0.757575757575758,0.6,0.166666666666667,1151.15,0.7,33,0.5,"data"
"373",806,"regret_late",0,3,8,2367,NA,NA,NA,NA,NA,NA,NA,NA,NA,47.5555555555556,36,0,1,"noregret",3,1,40,3,NA,0.5,0.2,0.7,3,1,2,"medium",0,NA,0.757575757575758,0.6,0.166666666666667,1151.15,0.5,33,0.7,"data"
"374",806,"regret_late",0,3,9,792,NA,NA,NA,NA,NA,NA,NA,NA,NA,47.5555555555556,36,0,2,"noregret",1,1,40,3,NA,0.5,0.2,0.7,3,1,2,"worst",0,NA,0.757575757575758,0.6,0.166666666666667,1151.15,0.2,33,0.5,"data"
"375",806,"regret_late",0,3,10,1501,NA,NA,NA,NA,NA,NA,NA,NA,NA,47.5555555555556,36,0,1,"noregret",2,1,40,3,NA,0.5,0.2,0.7,3,1,2,"medium",0,NA,0.757575757575758,0.6,0.166666666666667,1151.15,0.5,33,0.2,"data"
"376",806,"regret_late",1,4,11,942,NA,NA,NA,NA,NA,NA,NA,NA,NA,47.5555555555556,36,0,3,"noregret",1,1,40,3,NA,0.5,0.2,0.7,3,1,2,"best",1,NA,0.757575757575758,0.6,0.166666666666667,1151.15,0.7,33,0.5,"data"
"377",806,"regret_late",1,5,12,1733,NA,NA,NA,NA,NA,NA,NA,NA,NA,47.5555555555556,36,0,3,"noregret",3,0,40,4,NA,0.5,0.2,0.7,3,1,2,"best",1,NA,0.757575757575758,0.6,0.166666666666667,1151.15,0.7,33,0.7,"data"
"378",806,"regret_late",0,5,13,1249,NA,NA,NA,NA,NA,NA,NA,NA,NA,47.5555555555556,36,0,3,"noregret",3,0,40,5,NA,0.5,0.2,0.7,3,1,2,"best",1,NA,0.757575757575758,0.6,0.166666666666667,1151.15,0.7,33,0.7,"data"
"379",806,"regret_late",0,5,14,1259,NA,NA,NA,NA,NA,NA,NA,NA,NA,47.5555555555556,36,0,2,"noregret",3,1,40,5,NA,0.5,0.2,0.7,3,1,2,"worst",0,NA,0.757575757575758,0.6,0.166666666666667,1151.15,0.2,33,0.7,"data"
"380",806,"regret_late",1,6,15,1565,NA,NA,NA,NA,NA,NA,NA,NA,NA,47.5555555555556,36,0,3,"noregret",2,1,40,5,NA,0.5,0.2,0.7,3,1,2,"best",1,NA,0.757575757575758,0.6,0.166666666666667,1151.15,0.7,33,0.2,"data"
"381",806,"regret_late",1,7,16,2277,NA,NA,NA,NA,NA,NA,NA,NA,NA,47.5555555555556,36,0,3,"noregret",3,0,40,6,NA,0.5,0.2,0.7,3,1,2,"best",1,NA,0.757575757575758,0.6,0.166666666666667,1151.15,0.7,33,0.7,"data"
"382",806,"regret_late",0,7,17,1702,NA,NA,NA,NA,NA,NA,NA,NA,NA,47.5555555555556,36,0,1,"noregret",3,1,40,7,NA,0.5,0.2,0.7,3,1,2,"medium",0,NA,0.757575757575758,0.6,0.166666666666667,1151.15,0.5,33,0.7,"data"
"383",806,"regret_late",1,8,18,869,NA,NA,NA,NA,NA,NA,NA,NA,NA,47.5555555555556,36,0,3,"noregret",1,1,40,7,NA,0.5,0.2,0.7,3,1,2,"best",1,NA,0.757575757575758,0.6,0.166666666666667,1151.15,0.7,33,0.5,"data"
"384",806,"regret_late",0,8,19,1015,NA,NA,NA,NA,NA,NA,NA,NA,NA,47.5555555555556,36,0,2,"noregret",3,1,40,8,NA,0.5,0.2,0.7,3,1,2,"worst",0,NA,0.757575757575758,0.6,0.166666666666667,1151.15,0.2,33,0.7,"data"
"385",806,"regret_late",0,8,20,685,NA,NA,NA,NA,NA,NA,NA,NA,NA,47.5555555555556,36,0,3,"noregret",2,1,40,8,NA,0.5,0.2,0.7,3,1,2,"best",1,NA,0.757575757575758,0.6,0.166666666666667,1151.15,0.7,33,0.2,"data"
"386",806,"regret_late",1,9,21,953,NA,NA,NA,NA,NA,NA,NA,NA,NA,47.5555555555556,36,0,3,"noregret",3,0,40,8,NA,0.5,0.2,0.7,3,1,2,"best",1,NA,0.757575757575758,0.6,0.166666666666667,1151.15,0.7,33,0.7,"data"
"387",806,"regret_late",0,9,22,1157,NA,NA,NA,NA,NA,NA,NA,NA,NA,47.5555555555556,36,0,3,"noregret",3,0,40,9,NA,0.5,0.2,0.7,3,1,2,"best",1,NA,0.757575757575758,0.6,0.166666666666667,1151.15,0.7,33,0.7,"data"
"388",806,"regret_late",1,10,23,601,NA,NA,NA,NA,NA,NA,NA,NA,NA,47.5555555555556,36,0,2,"noregret",3,1,40,9,NA,0.5,0.2,0.7,3,1,2,"worst",0,NA,0.757575757575758,0.6,0.166666666666667,1151.15,0.2,33,0.7,"data"
"389",806,"regret_late",1,11,24,918,NA,NA,NA,NA,NA,NA,NA,NA,NA,47.5555555555556,36,0,3,"noregret",2,1,40,10,NA,0.5,0.2,0.7,3,1,2,"best",1,NA,0.757575757575758,0.6,0.166666666666667,1151.15,0.7,33,0.2,"data"
"390",806,"regret_late",0,11,25,1318,NA,NA,NA,NA,NA,NA,NA,NA,NA,47.5555555555556,36,0,3,"noregret",3,0,40,11,NA,0.5,0.2,0.7,3,1,2,"best",1,NA,0.757575757575758,0.6,0.166666666666667,1151.15,0.7,33,0.7,"data"
"391",806,"regret_late",0,11,26,894,NA,NA,NA,NA,NA,NA,NA,NA,NA,47.5555555555556,36,0,2,"noregret",3,1,40,11,NA,0.5,0.2,0.7,3,1,2,"worst",0,NA,0.757575757575758,0.6,0.166666666666667,1151.15,0.2,33,0.7,"data"
"392",806,"regret_late",1,12,27,963,NA,NA,NA,NA,NA,NA,NA,NA,NA,47.5555555555556,36,0,1,"noregret",2,1,40,11,NA,0.5,0.2,0.7,3,1,2,"medium",0,NA,0.757575757575758,0.6,0.166666666666667,1151.15,0.5,33,0.2,"data"
"393",806,"regret_late",1,13,28,1088,NA,NA,NA,NA,NA,NA,NA,NA,NA,47.5555555555556,36,0,3,"noregret",1,1,40,12,NA,0.5,0.2,0.7,3,1,2,"best",1,NA,0.757575757575758,0.6,0.166666666666667,1151.15,0.7,33,0.5,"data"
"394",806,"regret_late",1,14,29,1923,NA,NA,NA,NA,NA,NA,NA,NA,NA,47.5555555555556,36,0,1,"noregret",3,1,40,13,NA,0.5,0.2,0.7,3,1,2,"medium",0,NA,0.757575757575758,0.6,0.166666666666667,1151.15,0.5,33,0.7,"data"
"395",806,"regret_late",1,15,30,1369,NA,NA,NA,NA,NA,NA,NA,NA,NA,47.5555555555556,36,0,3,"noregret",1,1,40,14,NA,0.5,0.2,0.7,3,1,2,"best",1,NA,0.757575757575758,0.6,0.166666666666667,1151.15,0.7,33,0.5,"data"
"396",806,"regret_late",0,15,31,2544,NA,NA,NA,NA,NA,NA,NA,NA,NA,47.5555555555556,36,0,2,"noregret",3,1,40,15,NA,0.5,0.2,0.7,3,1,2,"worst",0,NA,0.757575757575758,0.6,0.166666666666667,1151.15,0.2,33,0.7,"data"
"397",806,"regret_late",0,15,NA,3847,NA,NA,NA,NA,NA,NA,NA,NA,"21",47.5555555555556,36,0,NA,"regret",2,0,40,15,NA,NA,NA,NA,3,NA,NA,NA,NA,NA,0.757575757575758,0.6,0.166666666666667,1151.15,NA,33,0.2,"data"
"398",806,"regret_late",1,16,32,1196,NA,NA,NA,NA,NA,NA,NA,NA,NA,47.5555555555556,36,1,3,"noregret",2,1,40,15,"21",0.5,0.2,0.7,3,1,2,"best",1,NA,0.757575757575758,0.6,0.166666666666667,1151.15,0.7,33,NA,"data"
"399",806,"regret_late",1,17,33,2646,NA,NA,NA,NA,NA,NA,NA,NA,NA,47.5555555555556,36,0,3,"noregret",3,0,40,16,NA,0.5,0.2,0.7,3,1,2,"best",1,NA,0.757575757575758,0.6,0.166666666666667,1151.15,0.7,33,0.7,"data"
"400",806,"regret_late",1,18,34,1713,NA,NA,NA,NA,NA,NA,NA,NA,NA,47.5555555555556,36,0,1,"noregret",3,1,40,17,NA,0.5,0.2,0.7,3,1,2,"medium",0,NA,0.757575757575758,0.6,0.166666666666667,1151.15,0.5,33,0.7,"data"
"401",806,"regret_late",1,19,35,1310,NA,NA,NA,NA,NA,NA,NA,NA,NA,47.5555555555556,36,0,3,"noregret",1,1,40,18,NA,0.5,0.2,0.7,3,1,2,"best",1,NA,0.757575757575758,0.6,0.166666666666667,1151.15,0.7,33,0.5,"data"
"402",806,"regret_late",1,20,36,1707,NA,NA,NA,NA,NA,NA,NA,NA,NA,47.5555555555556,36,0,3,"noregret",3,0,40,19,NA,0.5,0.2,0.7,3,1,2,"best",1,NA,0.757575757575758,0.6,0.166666666666667,1151.15,0.7,33,0.7,"data"
"403",806,"regret_late",0,20,37,1006,NA,NA,NA,NA,NA,NA,NA,NA,NA,47.5555555555556,36,0,1,"noregret",3,1,40,20,NA,0.5,0.2,0.7,3,1,2,"medium",0,NA,0.757575757575758,0.6,0.166666666666667,1151.15,0.5,33,0.7,"data"
"404",806,"regret_late",0,20,NA,2949,NA,NA,NA,NA,NA,NA,NA,NA,"25",47.5555555555556,36,0,NA,"regret",1,0,40,20,NA,NA,NA,NA,3,NA,NA,NA,NA,NA,0.757575757575758,0.6,0.166666666666667,1151.15,NA,33,0.5,"data"
"405",806,"regret_late",1,21,38,846,NA,NA,NA,NA,NA,NA,NA,NA,NA,47.5555555555556,36,1,3,"noregret",1,1,40,20,"25",0.5,0.2,0.7,3,1,2,"best",1,NA,0.757575757575758,0.6,0.166666666666667,1151.15,0.7,33,NA,"data"
"406",806,"regret_late",1,22,39,806,NA,NA,NA,NA,NA,NA,NA,NA,NA,47.5555555555556,36,0,3,"noregret",3,0,40,21,NA,0.5,0.2,0.7,3,1,2,"best",1,NA,0.757575757575758,0.6,0.166666666666667,1151.15,0.7,33,0.7,"data"
"407",806,"regret_late",1,23,40,1405,NA,NA,NA,NA,NA,NA,NA,NA,NA,47.5555555555556,36,0,1,"noregret",3,1,40,22,NA,0.5,0.2,0.7,3,1,2,"medium",0,NA,0.757575757575758,0.6,0.166666666666667,1151.15,0.5,33,0.7,"data"
"408",806,"regret_late",1,24,41,1031,NA,NA,NA,NA,NA,NA,NA,NA,NA,47.5555555555556,36,0,3,"noregret",1,1,40,23,NA,0.5,0.2,0.7,3,1,2,"best",1,NA,0.757575757575758,0.6,0.166666666666667,1151.15,0.7,33,0.5,"data"
"409",806,"regret_late",1,25,42,782,NA,NA,NA,NA,NA,NA,NA,NA,NA,47.5555555555556,36,0,3,"noregret",3,0,40,24,NA,0.5,0.2,0.7,3,1,2,"best",1,NA,0.757575757575758,0.6,0.166666666666667,1151.15,0.7,33,0.7,"data"
"410",806,"regret_late",0,25,43,874,NA,NA,NA,NA,NA,NA,NA,NA,NA,47.5555555555556,36,0,2,"noregret",3,1,40,25,NA,0.5,0.2,0.7,3,1,2,"worst",0,NA,0.757575757575758,0.6,0.166666666666667,1151.15,0.2,33,0.7,"data"
"411",806,"regret_late",0,25,NA,2584,NA,NA,NA,NA,NA,NA,NA,NA,"48",47.5555555555556,36,0,NA,"regret",2,0,40,25,NA,NA,NA,NA,3,NA,NA,NA,NA,NA,0.757575757575758,0.6,0.166666666666667,1151.15,NA,33,0.2,"data"
"412",806,"regret_late",1,26,44,604,NA,NA,NA,NA,NA,NA,NA,NA,NA,47.5555555555556,36,1,3,"noregret",2,1,40,25,"48",0.5,0.2,0.7,3,1,2,"best",1,NA,0.757575757575758,0.6,0.166666666666667,1151.15,0.7,33,NA,"data"
"413",806,"regret_late",1,27,45,659,NA,NA,NA,NA,NA,NA,NA,NA,NA,47.5555555555556,36,0,3,"noregret",3,0,40,26,NA,0.5,0.2,0.7,3,1,2,"best",1,NA,0.757575757575758,0.6,0.166666666666667,1151.15,0.7,33,0.7,"data"
"414",806,"regret_late",1,28,46,765,NA,NA,NA,NA,NA,NA,NA,NA,NA,47.5555555555556,36,0,1,"noregret",3,1,40,27,NA,0.5,0.2,0.7,3,1,2,"medium",0,NA,0.757575757575758,0.6,0.166666666666667,1151.15,0.5,33,0.7,"data"
"415",806,"regret_late",1,29,47,703,NA,NA,NA,NA,NA,NA,NA,NA,NA,47.5555555555556,36,0,3,"noregret",1,1,40,28,NA,0.5,0.2,0.7,3,1,2,"best",1,NA,0.757575757575758,0.6,0.166666666666667,1151.15,0.7,33,0.5,"data"
"416",806,"regret_late",0,29,48,828,NA,NA,NA,NA,NA,NA,NA,NA,NA,47.5555555555556,36,0,3,"noregret",3,0,40,29,NA,0.5,0.2,0.7,3,1,2,"best",1,NA,0.757575757575758,0.6,0.166666666666667,1151.15,0.7,33,0.7,"data"
"417",806,"regret_late",0,29,NA,2534,NA,NA,NA,NA,NA,NA,NA,NA,"87",47.5555555555556,36,0,NA,"regret",3,0,40,29,NA,NA,NA,NA,3,NA,NA,NA,NA,NA,0.757575757575758,0.6,0.166666666666667,1151.15,NA,33,0.7,"data"
"418",806,"regret_late",0,29,49,723,NA,NA,NA,NA,NA,NA,NA,NA,NA,47.5555555555556,36,1,3,"noregret",3,0,40,29,"87",0.5,0.2,0.7,3,1,2,"best",1,NA,0.757575757575758,0.6,0.166666666666667,1151.15,0.7,33,NA,"data"
"419",806,"regret_late",0,29,NA,2952,NA,NA,NA,NA,NA,NA,NA,NA,"61",47.5555555555556,36,0,NA,"regret",3,0,40,29,NA,NA,NA,NA,3,NA,NA,NA,NA,NA,0.757575757575758,0.6,0.166666666666667,1151.15,NA,33,0.7,"data"
"420",806,"regret_late",1,30,50,622,NA,NA,NA,NA,NA,NA,NA,NA,NA,47.5555555555556,36,1,1,"noregret",3,1,40,29,"61",0.5,0.2,0.7,3,1,2,"medium",0,NA,0.757575757575758,0.6,0.166666666666667,1151.15,0.5,33,NA,"data"
"421",806,"regret_late",1,31,51,765,NA,NA,NA,NA,NA,NA,NA,NA,NA,47.5555555555556,36,0,3,"noregret",1,1,40,30,NA,0.5,0.2,0.7,3,1,2,"best",1,NA,0.757575757575758,0.6,0.166666666666667,1151.15,0.7,33,0.5,"data"
"422",806,"regret_late",0,31,52,834,NA,NA,NA,NA,NA,NA,NA,NA,NA,47.5555555555556,36,0,3,"noregret",3,0,40,31,NA,0.5,0.2,0.7,3,1,2,"best",1,NA,0.757575757575758,0.6,0.166666666666667,1151.15,0.7,33,0.7,"data"
"423",806,"regret_late",0,31,NA,2266,NA,NA,NA,NA,NA,NA,NA,NA,"56",47.5555555555556,36,0,NA,"regret",3,0,40,31,NA,NA,NA,NA,3,NA,NA,NA,NA,NA,0.757575757575758,0.6,0.166666666666667,1151.15,NA,33,0.7,"data"
"424",806,"regret_late",1,32,53,726,NA,NA,NA,NA,NA,NA,NA,NA,NA,47.5555555555556,36,1,1,"noregret",3,1,40,31,"56",0.5,0.2,0.7,3,1,2,"medium",0,NA,0.757575757575758,0.6,0.166666666666667,1151.15,0.5,33,NA,"data"
"425",806,"regret_late",0,32,54,888,NA,NA,NA,NA,NA,NA,NA,NA,NA,47.5555555555556,36,0,2,"noregret",1,1,40,32,NA,0.5,0.2,0.7,3,1,2,"worst",0,NA,0.757575757575758,0.6,0.166666666666667,1151.15,0.2,33,0.5,"data"
"426",806,"regret_late",0,32,NA,2276,NA,NA,NA,NA,NA,NA,NA,NA,"53",47.5555555555556,36,0,NA,"regret",2,0,40,32,NA,NA,NA,NA,3,NA,NA,NA,NA,NA,0.757575757575758,0.6,0.166666666666667,1151.15,NA,33,0.2,"data"
"427",806,"regret_late",0,32,55,639,NA,NA,NA,NA,NA,NA,NA,NA,NA,47.5555555555556,36,1,2,"noregret",2,0,40,32,"53",0.5,0.2,0.7,3,1,2,"worst",0,NA,0.757575757575758,0.6,0.166666666666667,1151.15,0.2,33,NA,"data"
"428",806,"regret_late",0,32,NA,2507,NA,NA,NA,NA,NA,NA,NA,NA,"37",47.5555555555556,36,0,NA,"regret",2,0,40,32,NA,NA,NA,NA,3,NA,NA,NA,NA,NA,0.757575757575758,0.6,0.166666666666667,1151.15,NA,33,0.2,"data"
"429",806,"regret_late",1,33,56,528,NA,NA,NA,NA,NA,NA,NA,NA,NA,47.5555555555556,36,1,1,"noregret",2,1,40,32,"37",0.5,0.2,0.7,3,1,2,"medium",0,NA,0.757575757575758,0.6,0.166666666666667,1151.15,0.5,33,NA,"data"
"430",806,"regret_late",0,33,57,693,NA,NA,NA,NA,NA,NA,NA,NA,NA,47.5555555555556,36,0,1,"noregret",1,0,40,33,NA,0.5,0.2,0.7,3,1,2,"medium",0,NA,0.757575757575758,0.6,0.166666666666667,1151.15,0.5,33,0.5,"data"
"431",806,"regret_late",0,33,NA,2301,NA,NA,NA,NA,NA,NA,NA,NA,"40",47.5555555555556,36,0,NA,"regret",1,0,40,33,NA,NA,NA,NA,3,NA,NA,NA,NA,NA,0.757575757575758,0.6,0.166666666666667,1151.15,NA,33,0.5,"data"
"432",806,"regret_late",1,34,58,387,NA,NA,NA,NA,NA,NA,NA,NA,NA,47.5555555555556,36,1,3,"noregret",1,1,40,33,"40",0.5,0.2,0.7,3,1,2,"best",1,NA,0.757575757575758,0.6,0.166666666666667,1151.15,0.7,33,NA,"data"
"433",806,"regret_late",1,35,59,953,NA,NA,NA,NA,NA,NA,NA,NA,NA,47.5555555555556,36,0,3,"noregret",3,0,40,34,NA,0.5,0.2,0.7,3,1,2,"best",1,NA,0.757575757575758,0.6,0.166666666666667,1151.15,0.7,33,0.7,"data"
"434",806,"regret_late",1,36,60,1129,NA,NA,NA,NA,NA,NA,NA,NA,NA,47.5555555555556,36,0,3,"noregret",3,0,40,35,NA,0.5,0.2,0.7,3,1,2,"best",1,NA,0.757575757575758,0.6,0.166666666666667,1151.15,0.7,33,0.7,"data"
"435",806,"regret_late",0,36,61,25039,"30","White","Female","","",1,2,45,NA,47.5555555555556,36,0,NA,"noregret",3,0,40,36,NA,NA,NA,NA,3,NA,NA,NA,NA,0,0.757575757575758,0.6,0.166666666666667,1151.15,NA,33,0.7,"data"
"436",811,"regret_late",1,1,1,6125,NA,NA,NA,NA,NA,NA,NA,NA,NA,49.25,36,0,1,"noregret",NA,0,6,NA,NA,0.2,0.7,0.5,2,3,1,"worst",0,NA,0.697674418604651,0.5,0.272727272727273,923.016666666667,0.2,35.3,NA,"data"
"437",811,"regret_late",1,2,2,2207,NA,NA,NA,NA,NA,NA,NA,NA,NA,49.25,36,0,1,"noregret",1,0,6,1,NA,0.2,0.7,0.5,2,3,1,"worst",0,NA,0.697674418604651,0.5,0.272727272727273,923.016666666667,0.2,35.3,0.2,"data"
"438",811,"regret_late",0,2,3,1420,NA,NA,NA,NA,NA,NA,NA,NA,NA,49.25,36,0,1,"noregret",1,0,6,2,NA,0.2,0.7,0.5,2,3,1,"worst",0,NA,0.697674418604651,0.5,0.272727272727273,923.016666666667,0.2,35.3,0.2,"data"
"439",811,"regret_late",0,2,4,975,NA,NA,NA,NA,NA,NA,NA,NA,NA,49.25,36,0,1,"noregret",1,0,6,2,NA,0.2,0.7,0.5,2,3,1,"worst",0,NA,0.697674418604651,0.5,0.272727272727273,923.016666666667,0.2,35.3,0.2,"data"
"440",811,"regret_late",0,2,5,1050,NA,NA,NA,NA,NA,NA,NA,NA,NA,49.25,36,0,1,"noregret",1,0,6,2,NA,0.2,0.7,0.5,2,3,1,"worst",0,NA,0.697674418604651,0.5,0.272727272727273,923.016666666667,0.2,35.3,0.2,"data"
"441",811,"regret_late",1,3,6,1383,NA,NA,NA,NA,NA,NA,NA,NA,NA,49.25,36,0,1,"noregret",1,0,6,2,NA,0.2,0.7,0.5,2,3,1,"worst",0,NA,0.697674418604651,0.5,0.272727272727273,923.016666666667,0.2,35.3,0.2,"data"
"442",811,"regret_late",0,3,7,1334,NA,NA,NA,NA,NA,NA,NA,NA,NA,49.25,36,0,1,"noregret",1,0,6,3,NA,0.2,0.7,0.5,2,3,1,"worst",0,NA,0.697674418604651,0.5,0.272727272727273,923.016666666667,0.2,35.3,0.2,"data"
"443",811,"regret_late",0,3,8,833,NA,NA,NA,NA,NA,NA,NA,NA,NA,49.25,36,0,1,"noregret",1,0,6,3,NA,0.2,0.7,0.5,2,3,1,"worst",0,NA,0.697674418604651,0.5,0.272727272727273,923.016666666667,0.2,35.3,0.2,"data"
"444",811,"regret_late",0,3,9,787,NA,NA,NA,NA,NA,NA,NA,NA,NA,49.25,36,0,1,"noregret",1,0,6,3,NA,0.2,0.7,0.5,2,3,1,"worst",0,NA,0.697674418604651,0.5,0.272727272727273,923.016666666667,0.2,35.3,0.2,"data"
"445",811,"regret_late",1,4,10,889,NA,NA,NA,NA,NA,NA,NA,NA,NA,49.25,36,0,2,"noregret",1,1,6,3,NA,0.2,0.7,0.5,2,3,1,"best",1,NA,0.697674418604651,0.5,0.272727272727273,923.016666666667,0.7,35.3,0.2,"data"
"446",811,"regret_late",1,5,11,1265,NA,NA,NA,NA,NA,NA,NA,NA,NA,49.25,36,0,2,"noregret",2,0,6,4,NA,0.2,0.7,0.5,2,3,1,"best",1,NA,0.697674418604651,0.5,0.272727272727273,923.016666666667,0.7,35.3,0.7,"data"
"447",811,"regret_late",1,6,12,1077,NA,NA,NA,NA,NA,NA,NA,NA,NA,49.25,36,0,2,"noregret",2,0,6,5,NA,0.2,0.7,0.5,2,3,1,"best",1,NA,0.697674418604651,0.5,0.272727272727273,923.016666666667,0.7,35.3,0.7,"data"
"448",811,"regret_late",1,7,13,973,NA,NA,NA,NA,NA,NA,NA,NA,NA,49.25,36,0,2,"noregret",2,0,6,6,NA,0.2,0.7,0.5,2,3,1,"best",1,NA,0.697674418604651,0.5,0.272727272727273,923.016666666667,0.7,35.3,0.7,"data"
"449",811,"regret_late",1,8,14,910,NA,NA,NA,NA,NA,NA,NA,NA,NA,49.25,36,0,2,"noregret",2,0,6,7,NA,0.2,0.7,0.5,2,3,1,"best",1,NA,0.697674418604651,0.5,0.272727272727273,923.016666666667,0.7,35.3,0.7,"data"
"450",811,"regret_late",0,8,15,812,NA,NA,NA,NA,NA,NA,NA,NA,NA,49.25,36,0,2,"noregret",2,0,6,8,NA,0.2,0.7,0.5,2,3,1,"best",1,NA,0.697674418604651,0.5,0.272727272727273,923.016666666667,0.7,35.3,0.7,"data"
"451",811,"regret_late",1,9,16,1140,NA,NA,NA,NA,NA,NA,NA,NA,NA,49.25,36,0,2,"noregret",2,0,6,8,NA,0.2,0.7,0.5,2,3,1,"best",1,NA,0.697674418604651,0.5,0.272727272727273,923.016666666667,0.7,35.3,0.7,"data"
"452",811,"regret_late",0,9,17,749,NA,NA,NA,NA,NA,NA,NA,NA,NA,49.25,36,0,2,"noregret",2,0,6,9,NA,0.2,0.7,0.5,2,3,1,"best",1,NA,0.697674418604651,0.5,0.272727272727273,923.016666666667,0.7,35.3,0.7,"data"
"453",811,"regret_late",1,10,18,632,NA,NA,NA,NA,NA,NA,NA,NA,NA,49.25,36,0,2,"noregret",2,0,6,9,NA,0.2,0.7,0.5,2,3,1,"best",1,NA,0.697674418604651,0.5,0.272727272727273,923.016666666667,0.7,35.3,0.7,"data"
"454",811,"regret_late",1,11,19,761,NA,NA,NA,NA,NA,NA,NA,NA,NA,49.25,36,0,2,"noregret",2,0,6,10,NA,0.2,0.7,0.5,2,3,1,"best",1,NA,0.697674418604651,0.5,0.272727272727273,923.016666666667,0.7,35.3,0.7,"data"
"455",811,"regret_late",0,11,20,775,NA,NA,NA,NA,NA,NA,NA,NA,NA,49.25,36,0,2,"noregret",2,0,6,11,NA,0.2,0.7,0.5,2,3,1,"best",1,NA,0.697674418604651,0.5,0.272727272727273,923.016666666667,0.7,35.3,0.7,"data"
"456",811,"regret_late",1,12,21,621,NA,NA,NA,NA,NA,NA,NA,NA,NA,49.25,36,0,2,"noregret",2,0,6,11,NA,0.2,0.7,0.5,2,3,1,"best",1,NA,0.697674418604651,0.5,0.272727272727273,923.016666666667,0.7,35.3,0.7,"data"
"457",811,"regret_late",0,12,22,726,NA,NA,NA,NA,NA,NA,NA,NA,NA,49.25,36,0,2,"noregret",2,0,6,12,NA,0.2,0.7,0.5,2,3,1,"best",1,NA,0.697674418604651,0.5,0.272727272727273,923.016666666667,0.7,35.3,0.7,"data"
"458",811,"regret_late",1,13,23,581,NA,NA,NA,NA,NA,NA,NA,NA,NA,49.25,36,0,2,"noregret",2,0,6,12,NA,0.2,0.7,0.5,2,3,1,"best",1,NA,0.697674418604651,0.5,0.272727272727273,923.016666666667,0.7,35.3,0.7,"data"
"459",811,"regret_late",0,13,24,581,NA,NA,NA,NA,NA,NA,NA,NA,NA,49.25,36,0,2,"noregret",2,0,6,13,NA,0.2,0.7,0.5,2,3,1,"best",1,NA,0.697674418604651,0.5,0.272727272727273,923.016666666667,0.7,35.3,0.7,"data"
"460",811,"regret_late",1,14,25,587,NA,NA,NA,NA,NA,NA,NA,NA,NA,49.25,36,0,2,"noregret",2,0,6,13,NA,0.2,0.7,0.5,2,3,1,"best",1,NA,0.697674418604651,0.5,0.272727272727273,923.016666666667,0.7,35.3,0.7,"data"
"461",811,"regret_late",1,15,26,1271,NA,NA,NA,NA,NA,NA,NA,NA,NA,49.25,36,0,3,"noregret",2,1,6,14,NA,0.2,0.7,0.5,2,3,1,"medium",0,NA,0.697674418604651,0.5,0.272727272727273,923.016666666667,0.5,35.3,0.7,"data"
"462",811,"regret_late",1,16,27,651,NA,NA,NA,NA,NA,NA,NA,NA,NA,49.25,36,0,3,"noregret",3,0,6,15,NA,0.2,0.7,0.5,2,3,1,"medium",0,NA,0.697674418604651,0.5,0.272727272727273,923.016666666667,0.5,35.3,0.5,"data"
"463",811,"regret_late",1,17,28,653,NA,NA,NA,NA,NA,NA,NA,NA,NA,49.25,36,0,3,"noregret",3,0,6,16,NA,0.2,0.7,0.5,2,3,1,"medium",0,NA,0.697674418604651,0.5,0.272727272727273,923.016666666667,0.5,35.3,0.5,"data"
"464",811,"regret_late",0,17,29,668,NA,NA,NA,NA,NA,NA,NA,NA,NA,49.25,36,0,3,"noregret",3,0,6,17,NA,0.2,0.7,0.5,2,3,1,"medium",0,NA,0.697674418604651,0.5,0.272727272727273,923.016666666667,0.5,35.3,0.5,"data"
"465",811,"regret_late",1,18,30,661,NA,NA,NA,NA,NA,NA,NA,NA,NA,49.25,36,0,2,"noregret",3,1,6,17,NA,0.2,0.7,0.5,2,3,1,"best",1,NA,0.697674418604651,0.5,0.272727272727273,923.016666666667,0.7,35.3,0.5,"data"
"466",811,"regret_late",0,18,31,1435,NA,NA,NA,NA,NA,NA,NA,NA,NA,49.25,36,0,2,"noregret",2,0,6,18,NA,0.2,0.7,0.5,2,3,1,"best",1,NA,0.697674418604651,0.5,0.272727272727273,923.016666666667,0.7,35.3,0.7,"data"
"467",811,"regret_late",0,18,NA,4969,NA,NA,NA,NA,NA,NA,NA,NA,"71",49.25,36,0,NA,"regret",2,0,6,18,NA,NA,NA,NA,2,NA,NA,NA,NA,NA,0.697674418604651,0.5,0.272727272727273,923.016666666667,NA,35.3,0.7,"data"
"468",811,"regret_late",1,19,32,876,NA,NA,NA,NA,NA,NA,NA,NA,NA,49.25,36,1,2,"noregret",2,0,6,18,"71",0.2,0.7,0.5,2,3,1,"best",1,NA,0.697674418604651,0.5,0.272727272727273,923.016666666667,0.7,35.3,NA,"data"
"469",811,"regret_late",1,20,33,1317,NA,NA,NA,NA,NA,NA,NA,NA,NA,49.25,36,0,2,"noregret",2,0,6,19,NA,0.2,0.7,0.5,2,3,1,"best",1,NA,0.697674418604651,0.5,0.272727272727273,923.016666666667,0.7,35.3,0.7,"data"
"470",811,"regret_late",0,20,34,807,NA,NA,NA,NA,NA,NA,NA,NA,NA,49.25,36,0,2,"noregret",2,0,6,20,NA,0.2,0.7,0.5,2,3,1,"best",1,NA,0.697674418604651,0.5,0.272727272727273,923.016666666667,0.7,35.3,0.7,"data"
"471",811,"regret_late",0,20,NA,4534,NA,NA,NA,NA,NA,NA,NA,NA,"44",49.25,36,0,NA,"regret",2,0,6,20,NA,NA,NA,NA,2,NA,NA,NA,NA,NA,0.697674418604651,0.5,0.272727272727273,923.016666666667,NA,35.3,0.7,"data"
"472",811,"regret_late",0,20,35,647,NA,NA,NA,NA,NA,NA,NA,NA,NA,49.25,36,1,3,"noregret",2,1,6,20,"44",0.2,0.7,0.5,2,3,1,"medium",0,NA,0.697674418604651,0.5,0.272727272727273,923.016666666667,0.5,35.3,NA,"data"
"473",811,"regret_late",0,20,NA,4022,NA,NA,NA,NA,NA,NA,NA,NA,"54",49.25,36,0,NA,"regret",3,0,6,20,NA,NA,NA,NA,2,NA,NA,NA,NA,NA,0.697674418604651,0.5,0.272727272727273,923.016666666667,NA,35.3,0.5,"data"
"474",811,"regret_late",0,20,36,585,NA,NA,NA,NA,NA,NA,NA,NA,NA,49.25,36,1,3,"noregret",3,0,6,20,"54",0.2,0.7,0.5,2,3,1,"medium",0,NA,0.697674418604651,0.5,0.272727272727273,923.016666666667,0.5,35.3,NA,"data"
"475",811,"regret_late",0,20,NA,2442,NA,NA,NA,NA,NA,NA,NA,NA,"75",49.25,36,0,NA,"regret",3,0,6,20,NA,NA,NA,NA,2,NA,NA,NA,NA,NA,0.697674418604651,0.5,0.272727272727273,923.016666666667,NA,35.3,0.5,"data"
"476",811,"regret_late",0,20,37,704,NA,NA,NA,NA,NA,NA,NA,NA,NA,49.25,36,1,1,"noregret",3,1,6,20,"75",0.2,0.7,0.5,2,3,1,"worst",0,NA,0.697674418604651,0.5,0.272727272727273,923.016666666667,0.2,35.3,NA,"data"
"477",811,"regret_late",0,20,NA,3259,NA,NA,NA,NA,NA,NA,NA,NA,"58",49.25,36,0,NA,"regret",1,0,6,20,NA,NA,NA,NA,2,NA,NA,NA,NA,NA,0.697674418604651,0.5,0.272727272727273,923.016666666667,NA,35.3,0.2,"data"
"478",811,"regret_late",0,20,38,652,NA,NA,NA,NA,NA,NA,NA,NA,NA,49.25,36,1,1,"noregret",1,0,6,20,"58",0.2,0.7,0.5,2,3,1,"worst",0,NA,0.697674418604651,0.5,0.272727272727273,923.016666666667,0.2,35.3,NA,"data"
"479",811,"regret_late",0,20,NA,3270,NA,NA,NA,NA,NA,NA,NA,NA,"80",49.25,36,0,NA,"regret",1,0,6,20,NA,NA,NA,NA,2,NA,NA,NA,NA,NA,0.697674418604651,0.5,0.272727272727273,923.016666666667,NA,35.3,0.2,"data"
"480",811,"regret_late",1,21,39,476,NA,NA,NA,NA,NA,NA,NA,NA,NA,49.25,36,1,2,"noregret",1,1,6,20,"80",0.2,0.7,0.5,2,3,1,"best",1,NA,0.697674418604651,0.5,0.272727272727273,923.016666666667,0.7,35.3,NA,"data"
"481",811,"regret_late",1,22,40,854,NA,NA,NA,NA,NA,NA,NA,NA,NA,49.25,36,0,2,"noregret",2,0,6,21,NA,0.2,0.7,0.5,2,3,1,"best",1,NA,0.697674418604651,0.5,0.272727272727273,923.016666666667,0.7,35.3,0.7,"data"
